# timestamp ang_vel_x ang_vel_y ang_vel_z lin_acc_x lin_acc_y lin_acc_z
0 1403638127.270097017288 -0.010471975512 0.011170107213 0.065624379875 8.956740333333 0.081722083333 -3.930832208333
1 1403638127.275096893311 -0.012566370614 0.015358897418 0.059341194568 9.095667875000 0.049033250000 -3.947176625000
2 1403638127.280097007751 -0.011170107213 0.015358897418 0.059341194568 9.071151250000 -0.040861041667 -3.955348833333
3 1403638127.285096883774 -0.011868238914 0.021642082725 0.048171087355 9.201906583333 -0.089894291667 -3.996209875000
4 1403638127.290096998215 -0.011170107213 0.027227136331 0.050963614158 9.005773583333 -0.163444166667 -3.947176625000
5 1403638127.295097112656 -0.006283185307 0.034208453339 0.053058009261 8.964912541667 -0.179788583333 -3.930832208333
6 1403638127.300096988678 -0.006981317008 0.030019663134 0.058643062867 8.727918500000 -0.196133000000 -3.873626750000
7 1403638127.305097103119 -0.006981317008 0.019547687622 0.061435589670 8.776951750000 -0.179788583333 -3.873626750000
8 1403638127.310096979141 -0.013962634016 0.011170107213 0.067718774977 8.695229666667 -0.245166250000 -3.849110125000
9 1403638127.315097093582 -0.014660765717 0.010471975512 0.073303828584 8.842329416667 -0.261510666667 -3.898143375000
10 1403638127.320096969604 -0.014660765717 0.007679448709 0.084473935797 8.858673833333 -0.400438208333 -3.865454541667
11 1403638127.325097084045 -0.008377580410 0.013962634016 0.092851516206 9.087495666667 -0.392266000000 -3.922660000000
12 1403638127.330096960068 0.002094395102 0.016755160819 0.104719755120 8.964912541667 -0.433127041667 -3.971693250000
13 1403638127.335097074509 0.017453292520 0.024434609528 0.110304808726 9.103840083333 -0.343232750000 -3.971693250000
14 1403638127.340096950531 0.018151424221 0.028623399733 0.104719755120 8.891362666667 -0.269682875000 -3.930832208333
15 1403638127.345097064972 0.020943951024 0.021642082725 0.101927228316 8.948568125000 -0.049033250000 -3.971693250000
16 1403638127.350096940994 0.015358897418 0.016057029118 0.105417886820 8.825985000000 0.049033250000 -3.955348833333
17 1403638127.355097055435 0.010471975512 0.014660765717 0.108210413624 8.858673833333 0.098066500000 -3.963521041667
18 1403638127.360096931458 0.002094395102 0.007679448709 0.105417886820 8.776951750000 0.098066500000 -3.922660000000
19 1403638127.365097045898 0.000000000000 0.003490658504 0.104719755120 8.997601375000 0.138927541667 -3.906315583333
20 1403638127.370096921921 -0.004886921906 0.002094395102 0.097040306411 8.981256958333 0.065377666667 -3.914487791667
21 1403638127.375097036362 -0.009075712110 0.001396263402 0.085870199198 9.120184500000 0.081722083333 -3.922660000000
22 1403638127.380096912384 -0.009075712110 0.004886921906 0.074700091985 9.030290208333 0.016344416667 -3.857282333333
23 1403638127.385097026825 -0.004886921906 0.005585053606 0.066322511576 9.087495666667 0.016344416667 -3.865454541667
24 1403638127.390096902847 -0.004188790205 0.013264502315 0.060039326269 9.030290208333 -0.016344416667 -3.906315583333
25 1403638127.395097017288 -0.003490658504 0.014660765717 0.057246799465 8.989429166667 -0.016344416667 -3.963521041667
26 1403638127.400096893311 0.000698131701 0.019547687622 0.048171087355 8.973084750000 0.049033250000 -3.971693250000
27 1403638127.405097007751 -0.002792526803 0.023736477827 0.045378560552 9.062979041667 0.130755333333 -4.069759750000
28 1403638127.410096883774 -0.005585053606 0.030717794835 0.051661745859 8.997601375000 0.114410916667 -4.086104166667
29 1403638127.415096998215 -0.010471975512 0.029321531434 0.052359877560 8.964912541667 0.089894291667 -4.135137416667
30 1403638127.420097112656 -0.013264502315 0.032114058237 0.060039326269 8.834157208333 0.016344416667 -4.020726500000
31 1403638127.425096988678 -0.015358897418 0.026529004630 0.059341194568 8.899534875000 -0.057205458333 -3.996209875000
32 1403638127.430097103119 -0.018849555922 0.030717794835 0.061435589670 8.834157208333 -0.138927541667 -4.012554291667
33 1403638127.435096979141 -0.011170107213 0.033510321638 0.074001960285 8.956740333333 -0.187960791667 -4.028898708333
34 1403638127.440097093582 -0.003490658504 0.041189770347 0.076794487088 8.964912541667 -0.269682875000 -4.053415333333
35 1403638127.445096969604 0.002094395102 0.045378560552 0.082379540694 9.087495666667 -0.245166250000 -4.020726500000
36 1403638127.450097084045 0.004886921906 0.052359877560 0.080285145592 9.112012291667 -0.163444166667 -3.996209875000
37 1403638127.455096960068 0.011170107213 0.060039326269 0.087266462600 9.022118000000 -0.098066500000 -3.898143375000
38 1403638127.460097074509 0.011170107213 0.065624379875 0.090757121104 8.809640583333 -0.106238708333 -3.808249083333
39 1403638127.465096950531 0.004886921906 0.048869219056 0.094945911308 8.817812791667 -0.049033250000 -3.791904666667
40 1403638127.470097064972 -0.006283185307 0.041189770347 0.092851516206 8.858673833333 0.000000000000 -3.783732458333
41 1403638127.475096940994 -0.019547687622 0.034906585040 0.092153384505 8.899534875000 -0.089894291667 -3.767388041667
42 1403638127.480097055435 -0.023038346126 0.025830872930 0.088662726001 8.825985000000 -0.220649625000 -3.693838166667
43 1403638127.485096931458 -0.017453292520 0.010471975512 0.089360857702 8.858673833333 -0.318716125000 -3.652977125000
44 1403638127.490097045898 -0.014660765717 0.007679448709 0.080983277293 8.924051500000 -0.384093791667 -3.669321541667
45 1403638127.495096921921 -0.003490658504 0.002792526803 0.080983277293 8.915879291667 -0.433127041667 -3.718354791667
46 1403638127.500097036362 0.012566370614 0.012566370614 0.073303828584 9.046634625000 -0.343232750000 -3.832765708333
47 1403638127.505096912384 0.017453292520 0.013962634016 0.076794487088 8.964912541667 -0.228821833333 -3.865454541667
48 1403638127.510097026825 0.018849555922 0.008377580410 0.071209433481 9.054806833333 -0.032688833333 -4.028898708333
49 1403638127.515096902847 0.016057029118 0.016057029118 0.079587013891 9.005773583333 0.024516625000 -4.086104166667
50 1403638127.520097017288 0.011170107213 0.012566370614 0.083077672395 8.907707083333 0.098066500000 -4.094276375000
51 1403638127.525096893311 0.011868238914 0.010471975512 0.087266462600 8.850501625000 0.016344416667 -4.012554291667
52 1403638127.530097007751 0.009773843811 0.002792526803 0.075398223686 8.809640583333 0.089894291667 -3.881798958333
53 1403638127.535096883774 0.000698131701 -0.006981317008 0.074700091985 8.924051500000 0.155271958333 -4.004382083333
54 1403638127.540096998215 -0.011868238914 0.002792526803 0.076794487088 9.022118000000 0.196133000000 -4.004382083333
55 1403638127.545097112656 -0.020943951024 0.000000000000 0.086568330899 8.973084750000 0.057205458333 -3.963521041667
56 1403638127.550096988678 -0.023038346126 0.007679448709 0.085172067497 9.079323458333 -0.147099750000 -3.857282333333
57 1403638127.555097103119 -0.015358897418 0.000698131701 0.086568330899 8.924051500000 -0.335060541667 -3.775560250000
58 1403638127.560096979141 0.000000000000 0.012566370614 0.071907565182 9.201906583333 -0.367749375000 -3.865454541667
59 1403638127.565097093582 0.012566370614 0.018151424221 0.060737457969 9.030290208333 -0.286027291667 -3.865454541667
60 1403638127.570096969604 0.014660765717 0.026529004630 0.053058009261 8.940395916667 -0.065377666667 -3.955348833333
61 1403638127.575097084045 0.012566370614 0.018151424221 0.064228116473 8.760607333333 -0.024516625000 -3.955348833333
62 1403638127.580096960068 0.004188790205 0.013264502315 0.073303828584 8.727918500000 0.008172208333 -3.963521041667
63 1403638127.585097074509 -0.000698131701 0.001396263402 0.081681408993 8.760607333333 -0.089894291667 -3.979865458333
64 1403638127.590096950531 -0.004188790205 0.004188790205 0.077492618789 8.932223708333 -0.040861041667 -4.053415333333
65 1403638127.595097064972 -0.006981317008 0.000000000000 0.085870199198 8.907707083333 -0.138927541667 -3.996209875000
66 1403638127.600096940994 -0.000698131701 0.006283185307 0.079587013891 9.103840083333 -0.138927541667 -4.037070916667
67 1403638127.605097055435 0.000698131701 0.007679448709 0.083077672395 8.997601375000 -0.163444166667 -3.963521041667
68 1403638127.610096931458 0.009075712110 0.017453292520 0.084473935797 9.079323458333 -0.187960791667 -3.963521041667
69 1403638127.615097045898 0.014660765717 0.019547687622 0.090058989403 8.915879291667 -0.098066500000 -3.939004416667
70 1403638127.620096921921 0.020245819323 0.027227136331 0.084473935797 9.030290208333 -0.016344416667 -3.971693250000
71 1403638127.625097036362 0.015358897418 0.026529004630 0.078888882190 8.875018250000 0.040861041667 -3.947176625000
72 1403638127.630096912384 0.008377580410 0.030019663134 0.071209433481 8.948568125000 0.163444166667 -4.037070916667
73 1403638127.635097026825 -0.002094395102 0.023736477827 0.068416906678 8.834157208333 0.187960791667 -3.963521041667
74 1403638127.640096902847 -0.009075712110 0.021642082725 0.061435589670 8.981256958333 0.236994041667 -3.988037666667
75 1403638127.645097017288 -0.013962634016 0.017453292520 0.062831853072 8.875018250000 0.081722083333 -3.889971166667
76 1403638127.650096893311 -0.018849555922 0.012566370614 0.054454272662 9.062979041667 -0.024516625000 -3.939004416667
77 1403638127.655097007751 -0.016755160819 0.015358897418 0.052359877560 8.973084750000 -0.204305208333 -3.947176625000
78 1403638127.660096883774 -0.013962634016 0.018151424221 0.044680428851 9.038462416667 -0.277855083333 -3.930832208333
79 1403638127.665096998215 -0.005585053606 0.028623399733 0.051661745859 8.875018250000 -0.286027291667 -3.881798958333
80 1403638127.670097112656 -0.000698131701 0.030019663134 0.058643062867 8.981256958333 -0.179788583333 -3.955348833333
81 1403638127.675096988678 0.002094395102 0.037000980142 0.069813170080 8.915879291667 -0.204305208333 -3.955348833333
82 1403638127.680097103119 -0.009773843811 0.034906585040 0.072605696883 8.981256958333 -0.122583125000 -3.955348833333
83 1403638127.685096979141 -0.010471975512 0.037000980142 0.085172067497 8.801468375000 -0.294199500000 -3.947176625000
84 1403638127.690097093582 -0.006283185307 0.034906585040 0.094247779608 8.932223708333 -0.318716125000 -3.930832208333
85 1403638127.695096969604 0.001396263402 0.032812189937 0.104021623419 8.744262916667 -0.359577166667 -3.889971166667
86 1403638127.700097084045 0.008377580410 0.023038346126 0.101229096616 8.866846041667 -0.277855083333 -3.906315583333
87 1403638127.705096960068 0.015358897418 0.019547687622 0.104719755120 8.752435125000 -0.179788583333 -3.881798958333
88 1403638127.710097074509 0.015358897418 0.008377580410 0.099832833214 8.801468375000 -0.089894291667 -3.816421291667
89 1403638127.715096950531 0.004886921906 0.000698131701 0.094247779608 8.842329416667 -0.065377666667 -3.767388041667
90 1403638127.720097064972 0.004188790205 0.000000000000 0.094247779608 9.038462416667 0.057205458333 -3.881798958333
91 1403638127.725096940994 0.000698131701 0.009075712110 0.092153384505 9.112012291667 0.032688833333 -3.889971166667
92 1403638127.730097055435 -0.004886921906 0.019547687622 0.090058989403 9.267284250000 0.081722083333 -3.906315583333
93 1403638127.735096931458 -0.004188790205 0.025132741229 0.087964594301 9.054806833333 0.016344416667 -3.889971166667
94 1403638127.740097045898 -0.000698131701 0.022340214426 0.078888882190 9.112012291667 -0.008172208333 -3.922660000000
95 1403638127.745096921921 -0.000698131701 0.026529004630 0.071209433481 8.924051500000 0.000000000000 -3.939004416667
96 1403638127.750097036362 -0.004188790205 0.021642082725 0.065624379875 8.891362666667 0.032688833333 -3.988037666667
97 1403638127.755096912384 -0.002094395102 0.019547687622 0.060039326269 8.727918500000 -0.049033250000 -3.955348833333
98 1403638127.760097026825 -0.002792526803 0.013962634016 0.058643062867 8.825985000000 0.000000000000 -4.037070916667
99 1403638127.765096902847 -0.003490658504 0.009773843811 0.060039326269 8.793296166667 -0.032688833333 -4.037070916667
100 1403638127.770097017288 -0.004188790205 0.005585053606 0.067020643277 8.973084750000 -0.016344416667 -4.045243125000
101 1403638127.775096893311 -0.007679448709 0.008377580410 0.074700091985 9.038462416667 -0.032688833333 -4.037070916667
102 1403638127.780097007751 -0.006283185307 0.010471975512 0.078190750489 9.136528916667 -0.114410916667 -4.037070916667
103 1403638127.785096883774 -0.007679448709 0.020943951024 0.078888882190 9.022118000000 -0.155271958333 -3.947176625000
104 1403638127.790096998215 -0.004886921906 0.026529004630 0.087266462600 9.013945791667 -0.245166250000 -3.947176625000
105 1403638127.795097112656 -0.002792526803 0.033510321638 0.090058989403 8.899534875000 -0.269682875000 -3.914487791667
106 1403638127.800096988678 0.000698131701 0.030717794835 0.091455252805 8.981256958333 -0.245166250000 -3.914487791667
107 1403638127.805097103119 0.000000000000 0.031415926536 0.090757121104 8.858673833333 -0.196133000000 -3.881798958333
108 1403638127.810096979141 0.001396263402 0.023736477827 0.092153384505 8.834157208333 -0.171616375000 -3.873626750000
109 1403638127.815097093582 0.003490658504 0.024434609528 0.092851516206 8.744262916667 -0.187960791667 -3.889971166667
110 1403638127.820096969604 0.005585053606 0.017453292520 0.099832833214 8.899534875000 -0.163444166667 -3.914487791667
111 1403638127.825097084045 0.006283185307 0.020943951024 0.092851516206 8.858673833333 -0.049033250000 -3.898143375000
112 1403638127.830096960068 0.004886921906 0.013264502315 0.096342174710 8.883190458333 0.032688833333 -3.947176625000
113 1403638127.835097074509 0.002792526803 0.011170107213 0.094945911308 8.981256958333 0.073549875000 -3.963521041667
114 1403638127.840096950531 0.002094395102 0.014660765717 0.089360857702 9.144701125000 0.057205458333 -3.988037666667
115 1403638127.845097064972 -0.004886921906 0.025830872930 0.082379540694 9.079323458333 0.000000000000 -3.988037666667
116 1403638127.850096940994 -0.004886921906 0.027227136331 0.086568330899 9.087495666667 -0.032688833333 -3.963521041667
117 1403638127.855097055435 -0.004886921906 0.031415926536 0.083077672395 9.005773583333 -0.057205458333 -3.971693250000
118 1403638127.860096931458 -0.004188790205 0.027925268032 0.085172067497 8.997601375000 -0.081722083333 -3.939004416667
119 1403638127.865097045898 -0.005585053606 0.032114058237 0.079587013891 8.932223708333 -0.073549875000 -3.914487791667
120 1403638127.870096921921 -0.003490658504 0.024434609528 0.079587013891 8.776951750000 -0.187960791667 -3.849110125000
121 1403638127.875097036362 0.000698131701 0.020245819323 0.069813170080 8.801468375000 -0.179788583333 -3.865454541667
122 1403638127.880096912384 0.000000000000 0.013962634016 0.075398223686 8.858673833333 -0.138927541667 -3.889971166667
123 1403638127.885097026825 0.001396263402 0.010471975512 0.072605696883 8.981256958333 -0.114410916667 -3.889971166667
124 1403638127.890096902847 0.002792526803 0.009773843811 0.083077672395 9.079323458333 -0.106238708333 -3.889971166667
125 1403638127.895097017288 0.000698131701 0.017453292520 0.082379540694 9.079323458333 -0.065377666667 -3.906315583333
126 1403638127.900096893311 -0.002792526803 0.020943951024 0.088662726001 9.079323458333 -0.081722083333 -3.939004416667
127 1403638127.905097007751 -0.001396263402 0.027227136331 0.083077672395 9.030290208333 -0.073549875000 -3.971693250000
128 1403638127.910096883774 0.001396263402 0.025830872930 0.085870199198 8.932223708333 -0.081722083333 -4.045243125000
129 1403638127.915096998215 0.009075712110 0.031415926536 0.080983277293 8.956740333333 -0.065377666667 -4.004382083333
130 1403638127.920097112656 0.011868238914 0.019547687622 0.078888882190 8.752435125000 -0.040861041667 -3.906315583333
131 1403638127.925096988678 0.006283185307 0.016755160819 0.071907565182 9.095667875000 0.081722083333 -3.979865458333
132 1403638127.930097103119 -0.005585053606 0.017453292520 0.069813170080 8.932223708333 0.073549875000 -3.865454541667
133 1403638127.935096979141 -0.018151424221 0.020943951024 0.068416906678 8.997601375000 0.065377666667 -3.955348833333
134 1403638127.940097093582 -0.022340214426 0.020943951024 0.076794487088 8.801468375000 -0.081722083333 -3.857282333333
135 1403638127.945096969604 -0.023038346126 0.014660765717 0.077492618789 8.834157208333 -0.220649625000 -3.832765708333
136 1403638127.950097084045 -0.011868238914 0.004886921906 0.078888882190 8.964912541667 -0.359577166667 -3.922660000000
137 1403638127.955096960068 -0.002792526803 0.011170107213 0.071209433481 9.005773583333 -0.343232750000 -3.939004416667
138 1403638127.960097074509 0.006283185307 0.013962634016 0.064926248174 8.891362666667 -0.335060541667 -3.889971166667
139 1403638127.965096950531 0.010471975512 0.016755160819 0.063529984773 8.989429166667 -0.130755333333 -3.922660000000
140 1403638127.970097064972 0.008377580410 0.017453292520 0.067718774977 8.793296166667 -0.024516625000 -3.881798958333
141 1403638127.975096940994 0.002792526803 0.014660765717 0.067718774977 8.964912541667 0.114410916667 -4.045243125000
142 1403638127.980097055435 -0.004886921906 0.013264502315 0.072605696883 8.915879291667 0.098066500000 -4.045243125000
143 1403638127.985096931458 -0.006981317008 0.011868238914 0.074001960285 8.997601375000 0.032688833333 -3.979865458333
144 1403638127.990097045898 -0.016057029118 0.009075712110 0.073303828584 8.915879291667 -0.065377666667 -3.963521041667
145 1403638127.995096921921 -0.016057029118 0.011868238914 0.071209433481 8.973084750000 -0.065377666667 -3.939004416667
146 1403638128.000097036362 -0.012566370614 0.015358897418 0.072605696883 8.883190458333 -0.122583125000 -3.906315583333
147 1403638128.005096912384 -0.011868238914 0.021642082725 0.073303828584 9.046634625000 -0.122583125000 -3.914487791667
148 1403638128.010097026825 -0.009075712110 0.024434609528 0.071907565182 8.989429166667 -0.155271958333 -3.947176625000
149 1403638128.015096902847 0.000000000000 0.027227136331 0.068416906678 9.087495666667 -0.122583125000 -3.979865458333
150 1403638128.020097017288 0.004886921906 0.025830872930 0.060737457969 8.891362666667 -0.089894291667 -3.898143375000
151 1403638128.025096893311 0.000698131701 0.018151424221 0.059341194568 8.940395916667 0.000000000000 -3.881798958333
152 1403638128.030097007751 -0.004886921906 0.016057029118 0.057246799465 8.760607333333 0.000000000000 -3.889971166667
153 1403638128.035096883774 -0.011868238914 0.008377580410 0.058643062867 8.883190458333 0.065377666667 -3.922660000000
154 1403638128.040096998215 -0.016755160819 0.010471975512 0.067020643277 8.948568125000 -0.040861041667 -3.947176625000
155 1403638128.045097112656 -0.018849555922 0.010471975512 0.074001960285 9.112012291667 -0.089894291667 -3.930832208333
156 1403638128.050096988678 -0.014660765717 0.009773843811 0.074700091985 9.022118000000 -0.302371708333 -3.906315583333
157 1403638128.055097103119 -0.008377580410 0.009075712110 0.076096355387 9.103840083333 -0.343232750000 -3.939004416667
158 1403638128.060096979141 -0.004886921906 0.016057029118 0.074001960285 8.940395916667 -0.318716125000 -3.865454541667
159 1403638128.065097093582 0.000698131701 0.017453292520 0.071907565182 8.948568125000 -0.228821833333 -3.906315583333
160 1403638128.070096969604 0.002792526803 0.018849555922 0.077492618789 8.834157208333 -0.130755333333 -3.898143375000
161 1403638128.075097084045 0.004188790205 0.017453292520 0.089360857702 8.842329416667 -0.024516625000 -3.947176625000
162 1403638128.080096960068 -0.002094395102 0.015358897418 0.092851516206 8.915879291667 0.016344416667 -4.077931958333
163 1403638128.085097074509 -0.008377580410 0.011868238914 0.097040306411 8.964912541667 0.000000000000 -4.037070916667
164 1403638128.090096950531 -0.011170107213 0.016755160819 0.093549647907 8.973084750000 -0.024516625000 -4.012554291667
165 1403638128.095097064972 -0.013264502315 0.016755160819 0.094945911308 8.964912541667 -0.130755333333 -4.020726500000
166 1403638128.100096940994 -0.008377580410 0.023038346126 0.087266462600 8.834157208333 -0.163444166667 -3.963521041667
167 1403638128.105097055435 0.000698131701 0.016057029118 0.088662726001 8.883190458333 -0.114410916667 -3.898143375000
168 1403638128.110096931458 0.001396263402 0.014660765717 0.085870199198 8.891362666667 -0.098066500000 -3.898143375000
169 1403638128.115097045898 0.000000000000 0.002792526803 0.088662726001 8.964912541667 -0.089894291667 -3.865454541667
170 1403638128.120096921921 -0.004188790205 0.005585053606 0.085870199198 9.030290208333 -0.049033250000 -3.898143375000
171 1403638128.125097036362 -0.005585053606 0.008377580410 0.092153384505 8.997601375000 -0.204305208333 -3.865454541667
172 1403638128.130096912384 0.000000000000 0.010471975512 0.089360857702 8.981256958333 -0.187960791667 -3.849110125000
173 1403638128.135097026825 0.002792526803 0.007679448709 0.088662726001 8.883190458333 -0.179788583333 -3.889971166667
174 1403638128.140096902847 0.004886921906 0.005585053606 0.083775804096 8.989429166667 -0.081722083333 -3.996209875000
175 1403638128.145097017288 0.002094395102 0.010471975512 0.091455252805 8.956740333333 -0.081722083333 -4.045243125000
176 1403638128.150096893311 0.002094395102 0.018151424221 0.089360857702 9.095667875000 -0.040861041667 -4.102448583333
177 1403638128.155097007751 -0.000698131701 0.024434609528 0.094945911308 8.875018250000 -0.106238708333 -4.069759750000
178 1403638128.160096883774 0.002094395102 0.025132741229 0.093549647907 8.842329416667 -0.057205458333 -4.077931958333
179 1403638128.165096998215 -0.000698131701 0.022340214426 0.094945911308 8.711574083333 -0.073549875000 -4.020726500000
180 1403638128.170097112656 0.002792526803 0.018849555922 0.090058989403 8.875018250000 -0.073549875000 -4.077931958333
181 1403638128.175096988678 0.001396263402 0.014660765717 0.092851516206 8.801468375000 -0.089894291667 -3.971693250000
182 1403638128.180097103119 0.002094395102 0.012566370614 0.090058989403 8.932223708333 0.024516625000 -4.012554291667
183 1403638128.185096979141 0.002094395102 0.010471975512 0.089360857702 8.915879291667 -0.024516625000 -3.881798958333
184 1403638128.190097093582 0.002792526803 0.009773843811 0.080983277293 9.103840083333 -0.049033250000 -3.873626750000
185 1403638128.195096969604 0.004188790205 0.013264502315 0.078888882190 9.013945791667 -0.040861041667 -3.840937916667
186 1403638128.200097084045 0.001396263402 0.013962634016 0.069115038379 9.120184500000 0.040861041667 -3.832765708333
187 1403638128.205096960068 0.002094395102 0.020245819323 0.067718774977 9.013945791667 0.008172208333 -3.865454541667
188 1403638128.210097074509 -0.002094395102 0.020245819323 0.063529984773 9.112012291667 0.073549875000 -3.881798958333
189 1403638128.215096950531 -0.007679448709 0.026529004630 0.062133721371 8.997601375000 0.032688833333 -3.881798958333
190 1403638128.220097064972 -0.009075712110 0.038397243544 0.062133721371 9.095667875000 0.057205458333 -3.979865458333
191 1403638128.225096940994 -0.013962634016 0.039793506945 0.064228116473 8.817812791667 -0.098066500000 -3.939004416667
192 1403638128.230097055435 -0.010471975512 0.030019663134 0.064228116473 8.842329416667 -0.179788583333 -3.979865458333
193 1403638128.235096931458 -0.011170107213 0.025830872930 0.064228116473 8.687057458333 -0.245166250000 -3.930832208333
194 1403638128.240097045898 -0.008377580410 0.018849555922 0.066322511576 8.850501625000 -0.236994041667 -3.988037666667
195 1403638128.245096921921 -0.003490658504 0.017453292520 0.070511301781 8.801468375000 -0.253338458333 -3.963521041667
196 1403638128.250097036362 0.004886921906 0.011868238914 0.072605696883 8.891362666667 -0.236994041667 -3.955348833333
197 1403638128.255096912384 0.006283185307 0.011868238914 0.073303828584 8.964912541667 -0.187960791667 -3.955348833333
198 1403638128.260097026825 0.007679448709 0.009773843811 0.077492618789 8.989429166667 -0.040861041667 -3.947176625000
199 1403638128.265096902847 0.008377580410 0.015358897418 0.078190750489 8.981256958333 0.032688833333 -3.939004416667
200 1403638128.270097017288 -0.002094395102 0.020245819323 0.080285145592 9.005773583333 0.024516625000 -3.930832208333
201 1403638128.275096893311 -0.003490658504 0.023736477827 0.078888882190 8.964912541667 0.040861041667 -3.906315583333
202 1403638128.280097007751 -0.004188790205 0.030019663134 0.080285145592 9.095667875000 -0.040861041667 -3.947176625000
203 1403638128.285096883774 -0.003490658504 0.038397243544 0.074700091985 8.981256958333 -0.122583125000 -3.963521041667
204 1403638128.290096998215 -0.004886921906 0.029321531434 0.071907565182 9.013945791667 -0.114410916667 -3.988037666667
205 1403638128.295097112656 -0.005585053606 0.033510321638 0.072605696883 8.899534875000 -0.098066500000 -3.988037666667
206 1403638128.300096988678 -0.004886921906 0.029321531434 0.079587013891 8.678885250000 -0.130755333333 -3.930832208333
207 1403638128.305097103119 -0.002094395102 0.020245819323 0.077492618789 8.727918500000 -0.065377666667 -3.955348833333
208 1403638128.310096979141 0.000698131701 0.012566370614 0.083077672395 8.825985000000 -0.032688833333 -3.988037666667
209 1403638128.315097093582 -0.002094395102 0.016755160819 0.076794487088 8.940395916667 -0.089894291667 -4.020726500000
210 1403638128.320096969604 0.002094395102 0.013962634016 0.072605696883 8.989429166667 -0.081722083333 -3.996209875000
211 1403638128.325097084045 -0.001396263402 0.023038346126 0.071209433481 9.005773583333 0.008172208333 -3.979865458333
212 1403638128.330096960068 0.000698131701 0.026529004630 0.077492618789 9.030290208333 -0.040861041667 -3.963521041667
213 1403638128.335097074509 -0.000698131701 0.032114058237 0.072605696883 9.095667875000 0.008172208333 -3.988037666667
214 1403638128.340096950531 -0.004188790205 0.035604716741 0.071907565182 8.932223708333 -0.032688833333 -3.930832208333
215 1403638128.345097064972 -0.009075712110 0.030019663134 0.061435589670 8.973084750000 -0.049033250000 -3.889971166667
216 1403638128.350096940994 -0.009075712110 0.020943951024 0.069813170080 8.842329416667 -0.081722083333 -3.857282333333
217 1403638128.355097055435 -0.011170107213 0.028623399733 0.069115038379 8.989429166667 -0.114410916667 -3.889971166667
218 1403638128.360096931458 -0.006981317008 0.023038346126 0.074001960285 8.866846041667 -0.204305208333 -3.808249083333
219 1403638128.365097045898 -0.004188790205 0.020245819323 0.069115038379 9.046634625000 -0.179788583333 -3.824593500000
220 1403638128.370096921921 -0.010471975512 0.018151424221 0.072605696883 8.883190458333 -0.220649625000 -3.857282333333
221 1403638128.375097036362 -0.009075712110 0.018849555922 0.071907565182 9.038462416667 -0.163444166667 -3.873626750000
222 1403638128.380096912384 -0.007679448709 0.019547687622 0.078190750489 8.907707083333 -0.163444166667 -3.832765708333
223 1403638128.385097026825 -0.001396263402 0.020943951024 0.080983277293 8.948568125000 -0.122583125000 -3.889971166667
224 1403638128.390096902847 0.000000000000 0.023736477827 0.085172067497 8.875018250000 -0.106238708333 -3.914487791667
225 1403638128.395097017288 -0.000698131701 0.021642082725 0.082379540694 9.005773583333 -0.081722083333 -4.012554291667
226 1403638128.400096893311 -0.000698131701 0.025830872930 0.087266462600 8.875018250000 -0.147099750000 -3.988037666667
227 1403638128.405097007751 -0.000698131701 0.025830872930 0.090757121104 8.956740333333 -0.089894291667 -4.037070916667
228 1403638128.410096883774 0.000000000000 0.025830872930 0.092851516206 8.785123958333 -0.106238708333 -3.922660000000
229 1403638128.415096998215 0.006283185307 0.016755160819 0.094247779608 8.825985000000 -0.073549875000 -3.963521041667
230 1403638128.420097112656 0.002792526803 0.014660765717 0.089360857702 8.842329416667 -0.049033250000 -3.930832208333
231 1403638128.425096988678 -0.000698131701 0.009075712110 0.089360857702 8.948568125000 -0.032688833333 -3.930832208333
232 1403638128.430097103119 -0.004188790205 0.007679448709 0.090058989403 8.850501625000 -0.081722083333 -3.889971166667
233 1403638128.435096979141 -0.006283185307 0.004188790205 0.090757121104 8.981256958333 -0.081722083333 -3.873626750000
234 1403638128.440097093582 -0.002792526803 0.011170107213 0.090757121104 9.054806833333 -0.098066500000 -3.881798958333
235 1403638128.445096969604 0.003490658504 0.016755160819 0.085172067497 9.136528916667 -0.089894291667 -3.914487791667
236 1403638128.450097084045 0.003490658504 0.026529004630 0.077492618789 8.989429166667 -0.089894291667 -3.889971166667
237 1403638128.455096960068 -0.004188790205 0.023038346126 0.074001960285 8.989429166667 -0.057205458333 -3.914487791667
238 1403638128.460097074509 -0.009773843811 0.026529004630 0.074001960285 8.891362666667 -0.008172208333 -3.979865458333
239 1403638128.465096950531 -0.009773843811 0.018849555922 0.080285145592 8.850501625000 -0.081722083333 -4.004382083333
240 1403638128.470097064972 -0.013264502315 0.021642082725 0.083077672395 8.858673833333 -0.073549875000 -3.996209875000
241 1403638128.475096940994 -0.009075712110 0.015358897418 0.095644043009 8.809640583333 -0.228821833333 -3.930832208333
242 1403638128.480097055435 -0.002094395102 0.011170107213 0.090757121104 8.817812791667 -0.302371708333 -3.914487791667
243 1403638128.485096931458 0.003490658504 0.011868238914 0.087266462600 8.907707083333 -0.261510666667 -3.881798958333
244 1403638128.490097045898 0.006283185307 0.012566370614 0.078190750489 8.924051500000 -0.163444166667 -3.947176625000
245 1403638128.495096921921 0.007679448709 0.008377580410 0.080983277293 8.989429166667 -0.130755333333 -3.963521041667
246 1403638128.500097036362 0.007679448709 0.018151424221 0.085172067497 9.005773583333 0.032688833333 -3.996209875000
247 1403638128.505096912384 0.003490658504 0.020245819323 0.091455252805 8.964912541667 0.049033250000 -3.996209875000
248 1403638128.510097026825 -0.002792526803 0.027925268032 0.084473935797 8.973084750000 0.081722083333 -3.971693250000
249 1403638128.515096902847 -0.007679448709 0.023038346126 0.083077672395 8.834157208333 0.057205458333 -3.930832208333
250 1403638128.520097017288 -0.006981317008 0.025830872930 0.074001960285 8.940395916667 0.016344416667 -3.939004416667
251 1403638128.525096893311 -0.009075712110 0.019547687622 0.069115038379 8.883190458333 -0.065377666667 -3.873626750000
252 1403638128.530097007751 -0.008377580410 0.015358897418 0.066322511576 9.022118000000 -0.122583125000 -3.906315583333
253 1403638128.535096883774 -0.005585053606 0.013962634016 0.071209433481 8.948568125000 -0.155271958333 -3.914487791667
254 1403638128.540096998215 -0.004188790205 0.020245819323 0.069813170080 9.013945791667 -0.130755333333 -3.955348833333
255 1403638128.545097112656 -0.002792526803 0.023736477827 0.074700091985 8.932223708333 -0.147099750000 -3.898143375000
256 1403638128.550096988678 -0.006981317008 0.022340214426 0.071907565182 9.022118000000 -0.122583125000 -3.947176625000
257 1403638128.555097103119 -0.004188790205 0.021642082725 0.075398223686 8.858673833333 -0.155271958333 -3.963521041667
258 1403638128.560096979141 0.000698131701 0.019547687622 0.076096355387 8.981256958333 -0.098066500000 -3.963521041667
259 1403638128.565097093582 0.002094395102 0.023038346126 0.076794487088 8.858673833333 -0.155271958333 -3.898143375000
260 1403638128.570096969604 -0.002094395102 0.018151424221 0.080983277293 8.997601375000 -0.089894291667 -3.898143375000
261 1403638128.575097084045 0.000698131701 0.020943951024 0.078190750489 8.866846041667 -0.065377666667 -3.881798958333
262 1403638128.580096960068 0.000000000000 0.016755160819 0.078888882190 8.932223708333 -0.024516625000 -3.898143375000
263 1403638128.585097074509 -0.006283185307 0.016755160819 0.079587013891 8.875018250000 -0.122583125000 -3.889971166667
264 1403638128.590096950531 0.000000000000 0.011170107213 0.086568330899 9.054806833333 -0.057205458333 -3.922660000000
265 1403638128.595097064972 -0.000698131701 0.018849555922 0.087266462600 8.981256958333 -0.163444166667 -3.922660000000
266 1403638128.600096940994 0.002792526803 0.023038346126 0.089360857702 9.038462416667 -0.122583125000 -3.963521041667
267 1403638128.605097055435 0.001396263402 0.029321531434 0.081681408993 8.899534875000 -0.098066500000 -3.889971166667
268 1403638128.610096931458 0.000000000000 0.024434609528 0.077492618789 8.948568125000 -0.024516625000 -3.947176625000
269 1403638128.615097045898 -0.002094395102 0.027925268032 0.074001960285 8.866846041667 0.008172208333 -3.971693250000
270 1403638128.620096921921 -0.004188790205 0.025132741229 0.078888882190 8.875018250000 0.008172208333 -3.963521041667
271 1403638128.625097036362 -0.006283185307 0.021642082725 0.074700091985 8.817812791667 0.016344416667 -3.930832208333
272 1403638128.630096912384 -0.009075712110 0.017453292520 0.076096355387 8.899534875000 -0.089894291667 -3.955348833333
273 1403638128.635097026825 -0.011868238914 0.018151424221 0.064926248174 8.940395916667 -0.163444166667 -3.922660000000
274 1403638128.640096902847 -0.011170107213 0.011170107213 0.064926248174 8.842329416667 -0.122583125000 -3.865454541667
275 1403638128.645097017288 -0.012566370614 0.006981317008 0.067718774977 8.875018250000 -0.196133000000 -3.889971166667
276 1403638128.650096893311 -0.012566370614 0.002094395102 0.074700091985 8.973084750000 -0.212477416667 -3.939004416667
277 1403638128.655097007751 -0.008377580410 0.009773843811 0.080285145592 8.973084750000 -0.286027291667 -3.906315583333
278 1403638128.660096883774 -0.002094395102 0.011170107213 0.088662726001 8.883190458333 -0.269682875000 -3.857282333333
279 1403638128.665096998215 -0.002094395102 0.012566370614 0.087266462600 8.932223708333 -0.171616375000 -3.881798958333
280 1403638128.670097112656 -0.004188790205 0.005585053606 0.098436569812 8.956740333333 -0.204305208333 -3.914487791667
281 1403638128.675096988678 -0.005585053606 0.006981317008 0.099134701513 9.112012291667 -0.155271958333 -3.939004416667
282 1403638128.680097103119 -0.009773843811 0.004886921906 0.105417886820 8.948568125000 -0.171616375000 -3.849110125000
283 1403638128.685096979141 -0.010471975512 0.001396263402 0.105417886820 8.948568125000 -0.163444166667 -3.824593500000
284 1403638128.690097093582 -0.016755160819 -0.006981317008 0.112399203828 8.875018250000 -0.204305208333 -3.873626750000
285 1403638128.695096969604 -0.016057029118 -0.018151424221 0.115191730632 8.948568125000 -0.187960791667 -3.849110125000
286 1403638128.700097084045 -0.011170107213 -0.018151424221 0.118682389136 8.907707083333 -0.179788583333 -3.832765708333
287 1403638128.705096960068 -0.011170107213 -0.011868238914 0.119380520836 9.112012291667 -0.081722083333 -3.947176625000
288 1403638128.710097074509 -0.004886921906 -0.002792526803 0.113097335529 8.997601375000 -0.098066500000 -3.955348833333
289 1403638128.715096950531 -0.002792526803 0.003490658504 0.103323491718 9.177389958333 0.000000000000 -4.028898708333
290 1403638128.720097064972 -0.000698131701 0.013264502315 0.096342174710 8.940395916667 0.114410916667 -4.037070916667
291 1403638128.725096940994 -0.006981317008 0.014660765717 0.093549647907 8.981256958333 0.286027291667 -4.110620791667
292 1403638128.730097055435 -0.011170107213 0.017453292520 0.094247779608 8.817812791667 0.204305208333 -4.086104166667
293 1403638128.735096931458 -0.013264502315 0.018151424221 0.083775804096 8.899534875000 0.196133000000 -4.061587541667
294 1403638128.740097045898 -0.019547687622 0.017453292520 0.077492618789 8.817812791667 0.122583125000 -3.988037666667
295 1403638128.745096921921 -0.025132741229 0.005585053606 0.066322511576 8.850501625000 0.065377666667 -3.988037666667
296 1403638128.750097036362 -0.029321531434 0.002094395102 0.064926248174 8.752435125000 -0.089894291667 -3.930832208333
297 1403638128.755096912384 -0.030717794835 -0.004188790205 0.068416906678 8.981256958333 -0.212477416667 -3.930832208333
298 1403638128.760097026825 -0.027925268032 0.002792526803 0.072605696883 8.907707083333 -0.277855083333 -3.889971166667
299 1403638128.765096902847 -0.018151424221 0.004886921906 0.074001960285 8.981256958333 -0.286027291667 -3.922660000000
300 1403638128.770097017288 -0.006981317008 0.019547687622 0.078888882190 9.071151250000 -0.269682875000 -4.028898708333
301 1403638128.775096893311 0.002792526803 0.032812189937 0.078190750489 8.997601375000 -0.212477416667 -4.077931958333
302 1403638128.780097007751 0.010471975512 0.038397243544 0.076096355387 8.825985000000 -0.163444166667 -4.126965208333
303 1403638128.785096883774 0.009773843811 0.034208453339 0.071209433481 8.719746291667 0.057205458333 -4.077931958333
304 1403638128.790096998215 -0.000698131701 0.027227136331 0.064926248174 8.736090708333 0.261510666667 -4.077931958333
305 1403638128.795097112656 -0.013264502315 0.023736477827 0.067718774977 8.834157208333 0.245166250000 -4.061587541667
306 1403638128.800096988678 -0.024434609528 0.024434609528 0.059341194568 8.817812791667 0.089894291667 -3.996209875000
307 1403638128.805097103119 -0.037000980142 0.006981317008 0.056548667765 8.793296166667 -0.073549875000 -3.889971166667
308 1403638128.810096979141 -0.039095375245 0.000000000000 0.060039326269 8.842329416667 -0.286027291667 -3.865454541667
309 1403638128.815097093582 -0.030019663134 -0.002094395102 0.068416906678 8.915879291667 -0.473988083333 -3.939004416667
310 1403638128.820096969604 -0.023736477827 0.001396263402 0.071209433481 8.989429166667 -0.457643666667 -3.922660000000
311 1403638128.825097084045 -0.023736477827 -0.000698131701 0.080285145592 8.940395916667 -0.473988083333 -3.849110125000
312 1403638128.830096960068 -0.018151424221 0.001396263402 0.092153384505 9.022118000000 -0.449471458333 -3.808249083333
313 1403638128.835097074509 -0.012566370614 0.011170107213 0.115191730632 9.079323458333 -0.490332500000 -3.930832208333
314 1403638128.840096950531 -0.007679448709 0.017453292520 0.127059969545 8.981256958333 -0.433127041667 -3.849110125000
315 1403638128.845097064972 -0.000698131701 0.013264502315 0.142418866963 8.883190458333 -0.326888333333 -3.922660000000
316 1403638128.850096940994 0.005585053606 0.019547687622 0.147305788868 8.883190458333 -0.138927541667 -3.881798958333
317 1403638128.855097055435 0.016755160819 0.008377580410 0.145211393766 8.785123958333 -0.081722083333 -3.947176625000
318 1403638128.860096931458 0.017453292520 0.011170107213 0.117286125734 9.226423208333 0.114410916667 -4.159654041667
319 1403638128.865097045898 0.011170107213 0.014660765717 0.099134701513 8.858673833333 0.326888333333 -4.069759750000
320 1403638128.870096921921 0.006981317008 0.016057029118 0.082379540694 8.964912541667 0.498504708333 -4.167826250000
321 1403638128.875097036362 0.003490658504 0.024434609528 0.071209433481 8.940395916667 0.473988083333 -4.167826250000
322 1403638128.880096912384 0.000000000000 0.025132741229 0.046076692253 8.915879291667 0.449471458333 -4.110620791667
323 1403638128.885097026825 -0.013962634016 0.023038346126 0.025132741229 8.891362666667 0.384093791667 -4.151481833333
324 1403638128.890096902847 -0.020943951024 0.030717794835 0.012566370614 8.948568125000 0.302371708333 -4.045243125000
325 1403638128.895097017288 -0.026529004630 0.027925268032 0.007679448709 8.858673833333 0.024516625000 -4.020726500000
326 1403638128.900096893311 -0.024434609528 0.032812189937 0.007679448709 8.932223708333 -0.089894291667 -3.955348833333
327 1403638128.905097007751 -0.013264502315 0.029321531434 0.017453292520 8.776951750000 -0.220649625000 -3.824593500000
328 1403638128.910096883774 -0.002792526803 0.019547687622 0.025132741229 9.038462416667 -0.277855083333 -3.791904666667
329 1403638128.915096998215 -0.004188790205 0.018849555922 0.023038346126 8.981256958333 -0.236994041667 -3.783732458333
330 1403638128.920097112656 -0.007679448709 0.023038346126 0.023736477827 9.210078791667 -0.212477416667 -3.849110125000
331 1403638128.925096988678 -0.012566370614 0.036302848441 0.037699111843 9.079323458333 -0.318716125000 -3.906315583333
332 1403638128.930097103119 -0.006283185307 0.038397243544 0.052359877560 8.883190458333 -0.375921583333 -3.881798958333
333 1403638128.935096979141 -0.000698131701 0.042586033749 0.068416906678 8.768779541667 -0.367749375000 -3.955348833333
334 1403638128.940097093582 0.003490658504 0.041189770347 0.078190750489 8.752435125000 -0.343232750000 -4.020726500000
335 1403638128.945096969604 0.013962634016 0.039095375245 0.080285145592 8.793296166667 -0.326888333333 -4.167826250000
336 1403638128.950097084045 0.012566370614 0.039793506945 0.082379540694 8.842329416667 -0.277855083333 -4.184170666667
337 1403638128.955096960068 0.010471975512 0.040491638646 0.079587013891 8.654368625000 -0.179788583333 -4.045243125000
338 1403638128.960097074509 0.011868238914 0.023038346126 0.088662726001 8.736090708333 -0.081722083333 -4.004382083333
339 1403638128.965096950531 0.011170107213 0.016057029118 0.087266462600 8.858673833333 -0.024516625000 -4.037070916667
340 1403638128.970097064972 0.000698131701 0.004886921906 0.089360857702 9.005773583333 0.024516625000 -3.963521041667
341 1403638128.975096940994 -0.006283185307 0.011868238914 0.080285145592 9.103840083333 0.138927541667 -3.889971166667
342 1403638128.980097055435 -0.011170107213 0.011170107213 0.075398223686 9.030290208333 0.065377666667 -3.808249083333
343 1403638128.985096931458 -0.013962634016 0.009773843811 0.066322511576 9.087495666667 0.032688833333 -3.840937916667
344 1403638128.990097045898 -0.018849555922 0.016755160819 0.062831853072 9.046634625000 -0.098066500000 -3.816421291667
345 1403638128.995096921921 -0.013264502315 0.023736477827 0.057944931166 9.022118000000 -0.114410916667 -3.775560250000
346 1403638129.000097036362 -0.006981317008 0.024434609528 0.070511301781 8.613507583333 -0.204305208333 -3.595771666667
347 1403638129.005096912384 0.002792526803 0.000000000000 0.084473935797 8.539957708333 -0.196133000000 -3.473188541667
348 1403638129.010097026825 0.011170107213 -0.009075712110 0.094945911308 8.964912541667 -0.318716125000 -3.702010375000
349 1403638129.015096902847 0.017453292520 0.016057029118 0.088662726001 9.790305583333 -0.196133000000 -4.077931958333
350 1403638129.020097017288 0.013962634016 0.047472955654 0.076096355387 9.798477791667 -0.098066500000 -4.274064958333
351 1403638129.025096893311 0.006283185307 0.078888882190 0.054454272662 9.659550250000 -0.147099750000 -4.225031708333
352 1403638129.030097007751 0.006283185307 0.071907565182 0.034906585040 8.932223708333 -0.236994041667 -3.947176625000
353 1403638129.035096883774 0.011170107213 0.042586033749 0.008377580410 8.989429166667 -0.138927541667 -4.037070916667
354 1403638129.040096998215 0.007679448709 0.039095375245 -0.013962634016 9.136528916667 -0.057205458333 -4.323098208333
355 1403638129.045097112656 -0.000698131701 0.033510321638 -0.040491638646 9.242767625000 0.155271958333 -4.314926000000
356 1403638129.050096988678 -0.018151424221 0.032114058237 -0.051661745859 9.152873333333 0.138927541667 -4.175998458333
357 1403638129.055097103119 -0.029321531434 0.023736477827 -0.062133721371 9.095667875000 0.040861041667 -3.988037666667
358 1403638129.060096979141 -0.040491638646 0.015358897418 -0.069813170080 9.079323458333 -0.163444166667 -3.988037666667
359 1403638129.065097093582 -0.043284165449 0.011868238914 -0.083775804096 9.259112041667 -0.400438208333 -4.045243125000
360 1403638129.070096969604 -0.041189770347 0.014660765717 -0.094247779608 8.997601375000 -0.392266000000 -3.947176625000
361 1403638129.075097084045 -0.041189770347 0.006283185307 -0.084473935797 9.095667875000 -0.318716125000 -3.963521041667
362 1403638129.080096960068 -0.045378560552 0.008377580410 -0.073303828584 8.899534875000 -0.294199500000 -3.996209875000
363 1403638129.085097074509 -0.047472955654 -0.002792526803 -0.062831853072 8.956740333333 -0.245166250000 -4.045243125000
364 1403638129.090096950531 -0.046774823953 0.004188790205 -0.054454272662 9.022118000000 -0.261510666667 -4.151481833333
365 1403638129.095097064972 -0.041189770347 0.009773843811 -0.041887902048 9.022118000000 -0.310543916667 -4.151481833333
366 1403638129.100096940994 -0.028623399733 0.018151424221 -0.039793506945 9.013945791667 -0.228821833333 -4.135137416667
367 1403638129.105097055435 -0.025830872930 0.027925268032 -0.032114058237 9.013945791667 -0.016344416667 -4.102448583333
368 1403638129.110096931458 -0.028623399733 0.027925268032 -0.029321531434 9.013945791667 0.269682875000 -4.102448583333
369 1403638129.115097045898 -0.038397243544 0.032812189937 -0.009773843811 9.128356708333 0.367749375000 -4.159654041667
370 1403638129.120096921921 -0.048171087355 0.049567350757 0.002792526803 9.136528916667 0.400438208333 -4.175998458333
371 1403638129.125097036362 -0.055152404363 0.055152404363 0.020943951024 9.152873333333 0.335060541667 -4.012554291667
372 1403638129.130096912384 -0.055152404363 0.064926248174 0.022340214426 9.161045541667 0.392266000000 -3.939004416667
373 1403638129.135097026825 -0.060039326269 0.062133721371 0.022340214426 9.144701125000 0.408610416667 -3.922660000000
374 1403638129.140096902847 -0.063529984773 0.071209433481 0.009075712110 9.340834125000 0.506676916667 -4.004382083333
375 1403638129.145097017288 -0.067718774977 0.083077672395 0.005585053606 9.299973083333 0.400438208333 -3.996209875000
376 1403638129.150096893311 -0.062831853072 0.094247779608 0.000698131701 9.398039583333 0.155271958333 -4.020726500000
377 1403638129.155097007751 -0.053756140961 0.106814150222 0.008377580410 9.357178541667 -0.114410916667 -3.988037666667
378 1403638129.160096883774 -0.031415926536 0.115889862332 0.029321531434 9.128356708333 -0.147099750000 -3.922660000000
379 1403638129.165096998215 -0.009075712110 0.116587994033 0.062133721371 8.997601375000 -0.236994041667 -3.922660000000
380 1403638129.170097112656 0.008377580410 0.108908545324 0.094247779608 9.128356708333 -0.163444166667 -3.955348833333
381 1403638129.175096988678 0.024434609528 0.108908545324 0.127758101246 8.907707083333 -0.008172208333 -3.922660000000
382 1403638129.180097103119 0.038397243544 0.100530964915 0.176627320302 9.234595416667 -0.032688833333 -4.020726500000
383 1403638129.185096979141 0.060737457969 0.120776784238 0.211533905342 9.299973083333 -0.220649625000 -4.045243125000
384 1403638129.190097093582 0.086568330899 0.131248759750 0.242251700177 9.447072833333 -0.114410916667 -4.118793000000
385 1403638129.195096969604 0.110304808726 0.150796447372 0.270176968209 9.308145291667 0.065377666667 -4.069759750000
386 1403638129.200097084045 0.123569311041 0.166853476491 0.296007841138 9.447072833333 0.392266000000 -4.061587541667
387 1403638129.205096960068 0.129852496348 0.185004900711 0.323234977469 9.512450500000 0.572054583333 -4.118793000000
388 1403638129.210097074509 0.133343154852 0.206646983436 0.356745299108 9.651378041667 0.629260041667 -4.143309625000
389 1403638129.215096950531 0.134041286553 0.231081592964 0.381179908636 9.455245041667 0.563882375000 -4.037070916667
390 1403638129.220097064972 0.131248759750 0.238062909972 0.411199571770 9.545139333333 0.555710166667 -3.971693250000
391 1403638129.225096940994 0.131248759750 0.254119939090 0.444011761707 9.520622708333 0.572054583333 -4.028898708333
392 1403638129.230097055435 0.129154364648 0.261799387799 0.476823951645 9.643205833333 0.473988083333 -4.135137416667
393 1403638129.235096931458 0.128456232947 0.283441470524 0.513126800086 9.635033625000 0.343232750000 -4.135137416667
394 1403638129.240097045898 0.131248759750 0.305781684949 0.548731516827 9.643205833333 0.187960791667 -4.151481833333
395 1403638129.245096921921 0.140324471860 0.325329372572 0.580845575064 9.667722458333 -0.024516625000 -4.143309625000
396 1403638129.250097036362 0.147305788868 0.336499479785 0.612261501600 9.757616750000 -0.138927541667 -4.233203916667
397 1403638129.255096912384 0.155683369278 0.364424747816 0.642281164734 9.757616750000 -0.024516625000 -4.306753791667
398 1403638129.260097026825 0.161966554585 0.383972435439 0.678584013175 9.831166625000 -0.008172208333 -4.298581583333
399 1403638129.265096902847 0.162664686286 0.411897703471 0.699527964199 9.904716500000 -0.008172208333 -4.306753791667
400 1403638129.270097017288 0.159174027782 0.432143522794 0.720471915223 9.773961166667 -0.040861041667 -4.249548333333
401 1403638129.275096893311 0.156381500979 0.457276264023 0.741415866247 9.839338833333 -0.016344416667 -4.216859500000
402 1403638129.280097007751 0.154985237577 0.478220215046 0.758869158767 9.757616750000 -0.057205458333 -4.126965208333
403 1403638129.285096883774 0.150796447372 0.494975375866 0.774228056185 9.733100125000 0.016344416667 -4.135137416667
404 1403638129.290096998215 0.144513262065 0.515221195189 0.792379480405 9.643205833333 0.024516625000 -4.077931958333
405 1403638129.295097112656 0.136833813356 0.541750199819 0.797964534012 9.504278291667 0.057205458333 -3.979865458333
406 1403638129.300096988678 0.126361837844 0.543844594921 0.804247719319 9.283628666667 0.016344416667 -3.849110125000
407 1403638129.305097103119 0.116587994033 0.545240858323 0.803549587618 9.299973083333 0.057205458333 -3.783732458333
408 1403638129.310096979141 0.107512281923 0.543146463221 0.810530904626 9.030290208333 -0.187960791667 -3.693838166667
409 1403638129.315097093582 0.101927228316 0.539655804717 0.818210353335 9.103840083333 -0.326888333333 -3.693838166667
410 1403638129.320096969604 0.100530964915 0.539655804717 0.832172987351 8.809640583333 -0.555710166667 -3.579427250000
411 1403638129.325097084045 0.106814150222 0.527787565803 0.840550567760 8.776951750000 -0.776359791667 -3.546738416667
412 1403638129.330096960068 0.113795467230 0.516617458590 0.845437489666 8.539957708333 -1.021526041667 -3.448671916667
413 1403638129.335097074509 0.120078652537 0.497069770968 0.842644962863 8.629852000000 -1.160453583333 -3.456844125000
414 1403638129.340096950531 0.127059969545 0.481710873550 0.840550567760 8.638024208333 -1.340242166667 -3.391466458333
415 1403638129.345097064972 0.131946891451 0.458672527424 0.836361777556 8.997601375000 -1.430136458333 -3.465016333333
416 1403638129.350096940994 0.142418866963 0.444709893408 0.832871119052 8.940395916667 -1.520030750000 -3.326088791667
417 1403638129.355097055435 0.148702052270 0.430747259392 0.828682328847 9.030290208333 -1.405619833333 -3.317916583333
418 1403638129.360096931458 0.150796447372 0.416784625376 0.822399143540 8.817812791667 -1.348414375000 -3.211677875000
419 1403638129.365097045898 0.148702052270 0.384670567140 0.810530904626 8.850501625000 -1.234003458333 -3.162644625000
420 1403638129.370096921921 0.141720735262 0.358839694210 0.780511241492 8.776951750000 -1.127764750000 -3.154472416667
421 1403638129.375097036362 0.134739418254 0.327423767674 0.744906524751 8.850501625000 -0.947976166667 -3.138128000000
422 1403638129.380096912384 0.117984257435 0.299498499642 0.698131700798 8.736090708333 -0.882598500000 -3.219850083333
423 1403638129.385097026825 0.102625360017 0.264591914602 0.651356876844 8.588990958333 -0.817220833333 -3.097266958333
424 1403638129.390096902847 0.090757121104 0.226892802759 0.605280184592 8.531785500000 -0.825393041667 -3.031889291667
425 1403638129.395097017288 0.075398223686 0.183608637310 0.552222175331 8.458235625000 -0.972492791667 -3.023717083333
426 1403638129.400096893311 0.054454272662 0.124267442742 0.504051087976 8.482752250000 -1.046042666667 -2.974683833333
427 1403638129.405097007751 0.041189770347 0.083077672395 0.458672527424 8.490924458333 -1.152281375000 -2.892961750000
428 1403638129.410096883774 0.026529004630 0.041887902048 0.410501440069 8.499096666667 -1.307553333333 -2.925650583333
429 1403638129.415096998215 0.013962634016 -0.004886921906 0.362330352714 8.499096666667 -1.462825291667 -2.950167208333
430 1403638129.420097112656 0.005585053606 -0.043284165449 0.316253660461 8.474580041667 -1.593580625000 -2.933822791667
431 1403638129.425096988678 0.010471975512 -0.085172067497 0.282743338823 8.556302125000 -1.838746875000 -2.958339416667
432 1403638129.430097103119 0.011170107213 -0.121474915939 0.228289066161 8.580818750000 -1.904124541667 -2.868445125000
433 1403638129.435096979141 0.010471975512 -0.157777764380 0.180117978806 8.605335375000 -1.855091291667 -2.950167208333
434 1403638129.440097093582 0.010471975512 -0.183608637310 0.136833813356 8.687057458333 -1.797885833333 -2.860272916667
435 1403638129.445096969604 0.012566370614 -0.214326432145 0.085870199198 8.572646541667 -1.871435708333 -2.868445125000
436 1403638129.450097084045 0.016057029118 -0.252723675689 0.028623399733 8.695229666667 -1.732508166667 -2.892961750000
437 1403638129.455096960068 0.016057029118 -0.287630260729 -0.006283185307 8.621679791667 -1.642613875000 -2.884789541667
438 1403638129.460097074509 0.006981317008 -0.313461133658 -0.057246799465 8.858673833333 -1.503686333333 -3.031889291667
439 1403638129.465096950531 -0.000698131701 -0.332310689580 -0.100530964915 8.891362666667 -1.503686333333 -3.040061500000
440 1403638129.470097064972 -0.006981317008 -0.360235957612 -0.148003920569 8.915879291667 -1.552719583333 -3.097266958333
441 1403638129.475096940994 -0.009773843811 -0.386764962242 -0.189891822617 8.793296166667 -1.544547375000 -3.129955791667
442 1403638129.480097055435 -0.018849555922 -0.413293966872 -0.228987197862 8.817812791667 -1.454653083333 -3.219850083333
443 1403638129.485096931458 -0.025132741229 -0.437728576400 -0.256214334193 8.646196416667 -1.454653083333 -3.268883333333
444 1403638129.490097045898 -0.024434609528 -0.458672527424 -0.282743338823 8.891362666667 -1.430136458333 -3.375122041667
445 1403638129.495096921921 -0.026529004630 -0.474031424842 -0.312763001957 8.875018250000 -1.520030750000 -3.383294250000
446 1403638129.500097036362 -0.030717794835 -0.480314610149 -0.344178928493 8.989429166667 -1.421964250000 -3.481360750000
447 1403638129.505096912384 -0.030019663134 -0.478220215046 -0.383972435439 8.924051500000 -1.487341916667 -3.440499708333
448 1403638129.510097026825 -0.032812189937 -0.481012741850 -0.411897703471 9.128356708333 -1.413792041667 -3.481360750000
449 1403638129.515096902847 -0.032114058237 -0.471937029739 -0.433539786195 9.259112041667 -1.438308666667 -3.563082833333
450 1403638129.520097017288 -0.030019663134 -0.467050107834 -0.450993078715 9.504278291667 -1.405619833333 -3.620288291667
451 1403638129.525096893311 -0.031415926536 -0.453087473818 -0.468446371235 9.463417250000 -1.503686333333 -3.595771666667
452 1403638129.530097007751 -0.030019663134 -0.446106156810 -0.482409005251 9.487933875000 -1.446480875000 -3.644804916667
453 1403638129.535096883774 -0.022340214426 -0.440521103203 -0.497767902669 9.422556208333 -1.381103208333 -3.661149333333
454 1403638129.540096998215 -0.018849555922 -0.434936049597 -0.509636141582 9.520622708333 -1.274864500000 -3.702010375000
455 1403638129.545097112656 -0.018849555922 -0.427954732589 -0.522900643898 9.553311541667 -1.095075916667 -3.751043625000
456 1403638129.550096988678 -0.020943951024 -0.420973415581 -0.524995039000 9.536967125000 -0.874426291667 -3.791904666667
457 1403638129.555097103119 -0.023736477827 -0.408407044967 -0.538957673016 9.536967125000 -0.760015375000 -3.808249083333
458 1403638129.560096979141 -0.030717794835 -0.398633201156 -0.541052068118 9.602344791667 -0.555710166667 -3.865454541667
459 1403638129.565097093582 -0.041189770347 -0.377689250132 -0.547335253425 9.536967125000 -0.424954833333 -3.906315583333
460 1403638129.570096969604 -0.047472955654 -0.360235957612 -0.548033385126 9.430728416667 -0.343232750000 -3.906315583333
461 1403638129.575097084045 -0.060039326269 -0.339990138288 -0.561297887441 9.447072833333 -0.351404958333 -3.971693250000
462 1403638129.580096960068 -0.071907565182 -0.323933109170 -0.561996019142 9.308145291667 -0.326888333333 -3.996209875000
463 1403638129.585097074509 -0.076794487088 -0.310668606855 -0.558505360638 9.332661916667 -0.392266000000 -4.020726500000
464 1403638129.590096950531 -0.079587013891 -0.294611577737 -0.545938990024 9.242767625000 -0.588399000000 -4.020726500000
465 1403638129.595097064972 -0.079587013891 -0.277856416917 -0.534070751110 9.275456458333 -0.621087833333 -3.996209875000
466 1403638129.600096940994 -0.078888882190 -0.270875099910 -0.510334273283 9.226423208333 -0.678293291667 -3.979865458333
467 1403638129.605097055435 -0.074700091985 -0.254119939090 -0.487295927157 9.479761666667 -0.719154333333 -4.053415333333
468 1403638129.610096931458 -0.069115038379 -0.235968514870 -0.454483737219 9.528794916667 -0.710982125000 -4.086104166667
469 1403638129.615097045898 -0.064228116473 -0.198269403027 -0.433539786195 9.733100125000 -0.612915625000 -4.192342875000
470 1403638129.620096921921 -0.053058009261 -0.165457213089 -0.402123859659 9.561483750000 -0.645604458333 -4.135137416667
471 1403638129.625097036362 -0.045378560552 -0.141022603561 -0.387463093943 9.651378041667 -0.514849125000 -4.175998458333
472 1403638129.630096912384 -0.042586033749 -0.113795467230 -0.360235957612 9.463417250000 -0.302371708333 -4.143309625000
473 1403638129.635097026825 -0.045378560552 -0.087964594301 -0.333008821281 9.512450500000 -0.089894291667 -4.208687291667
474 1403638129.640096902847 -0.053058009261 -0.060737457969 -0.308574211753 9.430728416667 0.008172208333 -4.265892750000
475 1403638129.645097017288 -0.058643062867 -0.029321531434 -0.283441470524 9.504278291667 0.106238708333 -4.208687291667
476 1403638129.650096893311 -0.063529984773 0.001396263402 -0.256214334193 9.275456458333 0.114410916667 -4.143309625000
477 1403638129.655097007751 -0.067718774977 0.018151424221 -0.228289066161 9.316317500000 0.057205458333 -4.143309625000
478 1403638129.660096883774 -0.070511301781 0.038397243544 -0.198269403027 9.185562166667 0.073549875000 -4.126965208333
479 1403638129.665096998215 -0.076096355387 0.056548667765 -0.165457213089 9.250939833333 -0.008172208333 -4.151481833333
480 1403638129.670097112656 -0.073303828584 0.083775804096 -0.134739418254 9.103840083333 -0.204305208333 -4.086104166667
481 1403638129.675096988678 -0.066322511576 0.099134701513 -0.105417886820 9.201906583333 -0.294199500000 -4.135137416667
482 1403638129.680097103119 -0.056548667765 0.122871179340 -0.070511301781 9.152873333333 -0.359577166667 -4.126965208333
483 1403638129.685096979141 -0.044680428851 0.139626340160 -0.032114058237 9.226423208333 -0.375921583333 -4.110620791667
484 1403638129.690097093582 -0.037699111843 0.157079632679 -0.004188790205 9.201906583333 -0.473988083333 -4.094276375000
485 1403638129.695096969604 -0.024434609528 0.168249739892 0.027227136331 9.324489708333 -0.490332500000 -4.086104166667
486 1403638129.700097084045 -0.015358897418 0.188495559215 0.048171087355 9.389867375000 -0.498504708333 -4.004382083333
487 1403638129.705096960068 -0.009075712110 0.192684349420 0.069813170080 9.406211791667 -0.482160291667 -3.971693250000
488 1403638129.710097074509 0.000698131701 0.209439510239 0.087964594301 9.357178541667 -0.335060541667 -3.971693250000
489 1403638129.715096950531 0.006283185307 0.214326432145 0.110304808726 9.275456458333 -0.318716125000 -3.947176625000
490 1403638129.720097064972 0.010471975512 0.221307749153 0.129852496348 9.161045541667 -0.359577166667 -3.963521041667
491 1403638129.725096940994 0.013264502315 0.212232037043 0.148702052270 9.079323458333 -0.433127041667 -3.979865458333
492 1403638129.730097055435 0.020943951024 0.202458193231 0.160570291183 9.046634625000 -0.343232750000 -3.939004416667
493 1403638129.735096931458 0.027227136331 0.182212373908 0.172438530097 8.981256958333 -0.400438208333 -3.947176625000
494 1403638129.740097045898 0.030019663134 0.164060949687 0.173834793499 9.062979041667 -0.384093791667 -3.963521041667
495 1403638129.745096921921 0.032114058237 0.138230076758 0.180816110507 9.022118000000 -0.490332500000 -3.922660000000
496 1403638129.750097036362 0.038397243544 0.120776784238 0.173834793499 9.136528916667 -0.498504708333 -3.930832208333
497 1403638129.755096912384 0.040491638646 0.092851516206 0.165457213089 9.128356708333 -0.531193541667 -3.898143375000
498 1403638129.760097026825 0.041887902048 0.064228116473 0.153588974176 9.324489708333 -0.555710166667 -3.865454541667
499 1403638129.765096902847 0.047472955654 0.037000980142 0.148702052270 9.324489708333 -0.621087833333 -3.881798958333
500 1403638129.770097017288 0.048869219056 0.013264502315 0.141022603561 9.602344791667 -0.596571208333 -3.914487791667
501 1403638129.775096893311 0.043982297150 -0.011170107213 0.127059969545 9.496106083333 -0.645604458333 -3.857282333333
502 1403638129.780097007751 0.043982297150 -0.035604716741 0.115889862332 9.561483750000 -0.588399000000 -3.857282333333
503 1403638129.785096883774 0.039095375245 -0.063529984773 0.100530964915 9.430728416667 -0.580226791667 -3.857282333333
504 1403638129.790096998215 0.038397243544 -0.086568330899 0.083775804096 9.520622708333 -0.514849125000 -3.930832208333
505 1403638129.795097112656 0.037699111843 -0.104719755120 0.070511301781 9.340834125000 -0.539365750000 -3.979865458333
506 1403638129.800096988678 0.041887902048 -0.127059969545 0.053756140961 9.398039583333 -0.572054583333 -4.045243125000
507 1403638129.805097103119 0.044680428851 -0.150796447372 0.026529004630 9.283628666667 -0.629260041667 -4.020726500000
508 1403638129.810096979141 0.048869219056 -0.183608637310 0.006981317008 9.340834125000 -0.621087833333 -4.037070916667
509 1403638129.815097093582 0.046076692253 -0.203854456633 -0.008377580410 9.259112041667 -0.580226791667 -3.996209875000
510 1403638129.820096969604 0.050963614158 -0.228987197862 -0.017453292520 9.373522958333 -0.572054583333 -4.020726500000
511 1403638129.825097084045 0.050265482457 -0.246440490382 -0.020245819323 9.406211791667 -0.637432250000 -4.004382083333
512 1403638129.830096960068 0.047472955654 -0.268082573106 -0.028623399733 9.635033625000 -0.645604458333 -4.061587541667
513 1403638129.835097074509 0.050265482457 -0.272271363311 -0.037699111843 9.708583500000 -0.653776666667 -4.126965208333
514 1403638129.840096950531 0.048171087355 -0.276460153516 -0.047472955654 9.822994416667 -0.702809916667 -4.151481833333
515 1403638129.845097064972 0.045378560552 -0.265290046303 -0.055152404363 9.880199875000 -0.612915625000 -4.200515083333
516 1403638129.850096940994 0.051661745859 -0.263893782902 -0.057246799465 9.872027666667 -0.629260041667 -4.200515083333
517 1403638129.855097055435 0.050265482457 -0.254818070791 -0.064228116473 9.790305583333 -0.580226791667 -4.233203916667
518 1403638129.860096931458 0.053756140961 -0.252025543988 -0.062133721371 9.798477791667 -0.572054583333 -4.257720541667
519 1403638129.865097045898 0.052359877560 -0.249931148886 -0.062133721371 9.782133375000 -0.506676916667 -4.290409375000
520 1403638129.870096921921 0.051661745859 -0.249233017185 -0.061435589670 9.822994416667 -0.473988083333 -4.323098208333
521 1403638129.875097036362 0.057246799465 -0.238062909972 -0.063529984773 9.945577541667 -0.392266000000 -4.380303666667
522 1403638129.880096912384 0.050265482457 -0.233175988066 -0.067718774977 9.986438583333 -0.253338458333 -4.421164708333
523 1403638129.885097026825 0.043982297150 -0.218515222350 -0.069813170080 10.035471833333 -0.163444166667 -4.478370166667
524 1403638129.890096902847 0.044680428851 -0.203854456633 -0.071209433481 10.051816250000 -0.212477416667 -4.502886791667
525 1403638129.895097017288 0.038397243544 -0.185703032412 -0.083077672395 10.117193916667 -0.171616375000 -4.502886791667
526 1403638129.900096893311 0.032812189937 -0.167551608191 -0.085172067497 10.043644041667 -0.204305208333 -4.486542375000
527 1403638129.905097007751 0.030717794835 -0.150796447372 -0.085870199198 10.100849500000 -0.163444166667 -4.486542375000
528 1403638129.910096883774 0.025830872930 -0.134739418254 -0.089360857702 10.051816250000 -0.179788583333 -4.519231208333
529 1403638129.915096998215 0.028623399733 -0.113097335529 -0.088662726001 10.100849500000 -0.122583125000 -4.560092250000
530 1403638129.920097112656 0.024434609528 -0.095644043009 -0.084473935797 9.904716500000 -0.220649625000 -4.494714583333
531 1403638129.925096988678 0.027925268032 -0.073303828584 -0.083077672395 10.019127416667 -0.212477416667 -4.494714583333
532 1403638129.930097103119 0.027227136331 -0.049567350757 -0.070511301781 9.831166625000 -0.245166250000 -4.421164708333
533 1403638129.935096979141 0.031415926536 -0.029321531434 -0.045378560552 9.896544291667 -0.187960791667 -4.445681333333
534 1403638129.940097093582 0.034208453339 0.001396263402 -0.029321531434 9.912888708333 -0.245166250000 -4.388475875000
535 1403638129.945096969604 0.032812189937 0.030717794835 -0.017453292520 10.068160666667 -0.212477416667 -4.331270416667
536 1403638129.950097084045 0.034906585040 0.063529984773 0.006981317008 10.043644041667 -0.286027291667 -4.282237166667
537 1403638129.955096960068 0.041189770347 0.099134701513 0.029321531434 10.100849500000 -0.286027291667 -4.339442625000
538 1403638129.960097074509 0.043284165449 0.138230076758 0.059341194568 9.921060916667 -0.286027291667 -4.323098208333
539 1403638129.965096950531 0.048171087355 0.170344134995 0.090757121104 9.953749750000 -0.294199500000 -4.347614833333
540 1403638129.970097064972 0.054454272662 0.196873139625 0.122871179340 9.749444541667 -0.228821833333 -4.355787041667
541 1403638129.975096940994 0.061435589670 0.216420827247 0.149400183971 9.724927916667 -0.212477416667 -4.429336916667
542 1403638129.980097055435 0.062831853072 0.240855436775 0.177325452003 9.569655958333 -0.147099750000 -4.412992500000
543 1403638129.985096931458 0.064926248174 0.249931148886 0.204552588334 9.545139333333 -0.040861041667 -4.453853541667
544 1403638129.990097045898 0.068416906678 0.270176968209 0.236666646570 9.447072833333 -0.065377666667 -4.429336916667
545 1403638129.995096921921 0.072605696883 0.282045207122 0.259704992697 9.512450500000 0.000000000000 -4.470197958333
546 1403638130.000097036362 0.068416906678 0.298800367941 0.278554548618 9.561483750000 0.024516625000 -4.421164708333
547 1403638130.005096912384 0.071907565182 0.316951792162 0.294611577737 9.667722458333 -0.008172208333 -4.421164708333
548 1403638130.010097026825 0.068416906678 0.345575191895 0.300196631343 9.741272333333 -0.008172208333 -4.388475875000
549 1403638130.015096902847 0.070511301781 0.368613538021 0.306479816650 9.741272333333 0.032688833333 -4.339442625000
550 1403638130.020097017288 0.063529984773 0.390255620746 0.298800367941 9.708583500000 0.147099750000 -4.257720541667
551 1403638130.025096893311 0.053058009261 0.403520123061 0.305781684949 9.553311541667 0.081722083333 -4.175998458333
552 1403638130.030097007751 0.046774823953 0.412595835171 0.303687289847 9.463417250000 0.081722083333 -4.126965208333
553 1403638130.035096883774 0.043284165449 0.413293966872 0.312064870257 9.210078791667 -0.089894291667 -4.061587541667
554 1403638130.040096998215 0.046076692253 0.407708913266 0.321838714068 9.103840083333 -0.220649625000 -4.053415333333
555 1403638130.045097112656 0.046076692253 0.385368698840 0.332310689580 8.997601375000 -0.335060541667 -4.004382083333
556 1403638130.050096988678 0.050963614158 0.370707933124 0.330216294477 9.087495666667 -0.408610416667 -3.996209875000
557 1403638130.055097103119 0.059341194568 0.353254640604 0.334405084682 9.030290208333 -0.580226791667 -3.939004416667
558 1403638130.060096979141 0.069813170080 0.343480796792 0.332310689580 9.218251000000 -0.604743416667 -3.988037666667
559 1403638130.065097093582 0.080983277293 0.337895743186 0.330914426178 9.210078791667 -0.702809916667 -3.930832208333
560 1403638130.070096969604 0.087964594301 0.335103216383 0.323933109170 9.291800875000 -0.645604458333 -3.955348833333
561 1403638130.075097084045 0.094945911308 0.335103216383 0.314857397060 9.193734375000 -0.670121083333 -3.840937916667
562 1403638130.080096960068 0.103323491718 0.336499479785 0.299498499642 9.259112041667 -0.621087833333 -3.816421291667
563 1403638130.085097074509 0.108210413624 0.328121899375 0.289026524130 9.079323458333 -0.629260041667 -3.767388041667
564 1403638130.090096950531 0.113795467230 0.316951792162 0.271573231610 9.005773583333 -0.539365750000 -3.726527000000
565 1403638130.095097064972 0.110304808726 0.305083553249 0.257610597594 8.858673833333 -0.572054583333 -3.710182583333
566 1403638130.100096940994 0.115191730632 0.275762021815 0.241553568476 8.899534875000 -0.588399000000 -3.710182583333
567 1403638130.105097055435 0.112399203828 0.251327412287 0.222704012554 8.744262916667 -0.653776666667 -3.693838166667
568 1403638130.110096931458 0.112399203828 0.221307749153 0.210137641940 8.866846041667 -0.678293291667 -3.685665958333
569 1403638130.115097045898 0.111701072128 0.192684349420 0.200363798129 8.785123958333 -0.768187583333 -3.628460500000
570 1403638130.120096921921 0.113795467230 0.161268422884 0.190589954318 9.005773583333 -0.792704208333 -3.677493750000
571 1403638130.125097036362 0.120776784238 0.144513262065 0.179419847105 8.981256958333 -0.817220833333 -3.603943875000
572 1403638130.130096912384 0.122173047640 0.120078652537 0.161966554585 9.079323458333 -0.735498750000 -3.595771666667
573 1403638130.135097026825 0.122871179340 0.101927228316 0.142418866963 9.038462416667 -0.653776666667 -3.612116083333
574 1403638130.140096902847 0.120776784238 0.082379540694 0.123569311041 9.054806833333 -0.645604458333 -3.595771666667
575 1403638130.145097017288 0.110304808726 0.075398223686 0.100530964915 9.071151250000 -0.572054583333 -3.587599458333
576 1403638130.150096893311 0.109606677025 0.064228116473 0.074001960285 9.112012291667 -0.670121083333 -3.620288291667
577 1403638130.155097007751 0.112399203828 0.048869219056 0.057246799465 9.030290208333 -0.710982125000 -3.620288291667
578 1403638130.160096883774 0.114493598931 0.028623399733 0.037000980142 9.071151250000 -0.751843166667 -3.612116083333
579 1403638130.165096998215 0.115889862332 0.018849555922 0.009075712110 9.169217750000 -0.760015375000 -3.669321541667
580 1403638130.170097112656 0.119380520836 0.010471975512 -0.006283185307 9.185562166667 -0.694637708333 -3.767388041667
581 1403638130.175096988678 0.119380520836 0.006981317008 -0.020943951024 9.185562166667 -0.621087833333 -3.751043625000
582 1403638130.180097103119 0.116587994033 -0.003490658504 -0.032114058237 9.079323458333 -0.555710166667 -3.726527000000
583 1403638130.185096979141 0.113795467230 -0.015358897418 -0.041189770347 9.169217750000 -0.449471458333 -3.726527000000
584 1403638130.190097093582 0.107512281923 -0.023736477827 -0.048869219056 9.087495666667 -0.441299250000 -3.702010375000
585 1403638130.195096969604 0.107512281923 -0.022340214426 -0.058643062867 9.234595416667 -0.408610416667 -3.718354791667
586 1403638130.200097084045 0.106116018521 -0.018849555922 -0.058643062867 9.234595416667 -0.490332500000 -3.710182583333
587 1403638130.205096960068 0.106116018521 -0.011170107213 -0.060737457969 9.316317500000 -0.465815875000 -3.718354791667
588 1403638130.210097074509 0.101927228316 -0.011170107213 -0.053756140961 9.177389958333 -0.523021333333 -3.710182583333
589 1403638130.215096950531 0.100530964915 -0.007679448709 -0.044680428851 9.316317500000 -0.514849125000 -3.742871416667
590 1403638130.220097064972 0.102625360017 0.006981317008 -0.017453292520 9.283628666667 -0.612915625000 -3.751043625000
591 1403638130.225096940994 0.107512281923 0.019547687622 0.005585053606 9.414384000000 -0.702809916667 -3.783732458333
592 1403638130.230097055435 0.115191730632 0.028623399733 0.029321531434 9.275456458333 -0.776359791667 -3.759215833333
593 1403638130.235096931458 0.126361837844 0.045378560552 0.050265482457 9.381695166667 -0.735498750000 -3.816421291667
594 1403638130.240097045898 0.134041286553 0.064228116473 0.069115038379 9.299973083333 -0.661948875000 -3.791904666667
595 1403638130.245096921921 0.136833813356 0.078190750489 0.083077672395 9.512450500000 -0.482160291667 -3.873626750000
596 1403638130.250097036362 0.139626340160 0.106814150222 0.106814150222 9.422556208333 -0.367749375000 -3.889971166667
597 1403638130.255096912384 0.141720735262 0.136135681656 0.134041286553 9.545139333333 -0.269682875000 -3.914487791667
598 1403638130.260097026825 0.135437549955 0.167551608191 0.150796447372 9.422556208333 -0.204305208333 -3.849110125000
599 1403638130.265096902847 0.126361837844 0.192684349420 0.166155344790 9.479761666667 -0.024516625000 -3.865454541667
600 1403638130.270097017288 0.114493598931 0.213628300444 0.180816110507 9.373522958333 -0.016344416667 -3.865454541667
601 1403638130.275096893311 0.101229096616 0.228987197862 0.194778744523 9.381695166667 -0.057205458333 -3.889971166667
602 1403638130.280097007751 0.090058989403 0.238761041673 0.217817090649 9.177389958333 -0.171616375000 -3.808249083333
603 1403638130.285096883774 0.081681408993 0.242949831878 0.236666646570 9.218251000000 -0.253338458333 -3.767388041667
604 1403638130.290096998215 0.078888882190 0.249931148886 0.260403124398 9.161045541667 -0.294199500000 -3.718354791667
605 1403638130.295097112656 0.077492618789 0.256214334193 0.289026524130 9.210078791667 -0.375921583333 -3.652977125000
606 1403638130.300096988678 0.076794487088 0.263195651201 0.309272343453 9.218251000000 -0.498504708333 -3.595771666667
607 1403638130.305097103119 0.074700091985 0.265988178004 0.334405084682 9.218251000000 -0.547537958333 -3.571255041667
608 1403638130.310096979141 0.071907565182 0.278554548618 0.360235957612 9.177389958333 -0.670121083333 -3.587599458333
609 1403638130.315097093582 0.078888882190 0.293215314335 0.385368698840 9.136528916667 -0.768187583333 -3.571255041667
610 1403638130.320096969604 0.080983277293 0.300196631343 0.404916386463 9.046634625000 -0.833565250000 -3.546738416667
611 1403638130.325097084045 0.094945911308 0.300196631343 0.418879020479 8.924051500000 -0.907115125000 -3.473188541667
612 1403638130.330096960068 0.101927228316 0.295309709437 0.419577152179 8.924051500000 -0.947976166667 -3.456844125000
613 1403638130.335097074509 0.113795467230 0.289026524130 0.423765942384 8.997601375000 -1.046042666667 -3.415983083333
614 1403638130.340096950531 0.127059969545 0.286932129028 0.421671547282 9.234595416667 -0.972492791667 -3.465016333333
615 1403638130.345097064972 0.135437549955 0.289724655831 0.423765942384 9.250939833333 -0.882598500000 -3.522221791667
616 1403638130.350096940994 0.137531945057 0.292517182634 0.417482757077 9.324489708333 -0.694637708333 -3.579427250000
617 1403638130.355097055435 0.133343154852 0.284837733925 0.410501440069 9.030290208333 -0.653776666667 -3.497705166667
618 1403638130.360096931458 0.128456232947 0.268082573106 0.391651884148 9.013945791667 -0.563882375000 -3.538566208333
619 1403638130.365097045898 0.120776784238 0.252723675689 0.364424747816 8.776951750000 -0.473988083333 -3.473188541667
620 1403638130.370096921921 0.113097335529 0.227590934460 0.338593874887 8.776951750000 -0.392266000000 -3.481360750000
621 1403638130.375097036362 0.099832833214 0.208043246838 0.314159265359 8.523613291667 -0.408610416667 -3.415983083333
622 1403638130.380096912384 0.088662726001 0.185004900711 0.289026524130 8.564474333333 -0.473988083333 -3.415983083333
623 1403638130.385097026825 0.083775804096 0.152890842475 0.261101256098 8.409202375000 -0.760015375000 -3.317916583333
624 1403638130.390096902847 0.080285145592 0.125663706144 0.240855436775 8.556302125000 -0.972492791667 -3.260711125000
625 1403638130.395097017288 0.082379540694 0.105417886820 0.221307749153 8.548129916667 -1.323897750000 -3.129955791667
626 1403638130.400096893311 0.093549647907 0.087266462600 0.205948851735 8.825985000000 -1.520030750000 -3.105439166667
627 1403638130.405097007751 0.107512281923 0.077492618789 0.198269403027 8.891362666667 -1.691647125000 -3.080922541667
628 1403638130.410096883774 0.124267442742 0.073303828584 0.192684349420 9.062979041667 -1.748852583333 -3.089094750000
629 1403638130.415096998215 0.138230076758 0.077492618789 0.188495559215 9.022118000000 -1.650786083333 -3.064578125000
630 1403638130.420097112656 0.147305788868 0.076096355387 0.178721715404 9.103840083333 -1.495514125000 -3.097266958333
631 1403638130.425096988678 0.156381500979 0.071907565182 0.168947871593 8.915879291667 -1.430136458333 -3.154472416667
632 1403638130.430097103119 0.160570291183 0.067020643277 0.150098315672 8.948568125000 -1.266692291667 -3.268883333333
633 1403638130.435096979141 0.160570291183 0.065624379875 0.124965574443 8.817812791667 -1.176798000000 -3.293399958333
634 1403638130.440097093582 0.165457213089 0.051661745859 0.094945911308 8.768779541667 -1.013353833333 -3.399638666667
635 1403638130.445096969604 0.160570291183 0.038397243544 0.055152404363 8.687057458333 -0.809048625000 -3.465016333333
636 1403638130.450097084045 0.150796447372 0.018151424221 0.024434609528 8.719746291667 -0.653776666667 -3.522221791667
637 1403638130.455096960068 0.141720735262 0.004188790205 -0.018849555922 8.785123958333 -0.612915625000 -3.554910625000
638 1403638130.460097074509 0.121474915939 -0.016755160819 -0.055850536064 8.793296166667 -0.645604458333 -3.538566208333
639 1403638130.465096950531 0.108210413624 -0.033510321638 -0.092153384505 8.817812791667 -0.710982125000 -3.481360750000
640 1403638130.470097064972 0.092851516206 -0.060039326269 -0.122173047640 8.817812791667 -0.719154333333 -3.391466458333
641 1403638130.475096940994 0.073303828584 -0.086568330899 -0.155683369278 8.948568125000 -0.694637708333 -3.350605416667
642 1403638130.480097055435 0.046774823953 -0.104021623419 -0.178023583703 9.144701125000 -0.800876416667 -3.350605416667
643 1403638130.485096931458 0.032812189937 -0.101927228316 -0.204552588334 9.291800875000 -0.882598500000 -3.317916583333
644 1403638130.490097045898 0.029321531434 -0.095644043009 -0.227590934460 9.357178541667 -0.997009416667 -3.317916583333
645 1403638130.495096921921 0.031415926536 -0.080983277293 -0.249233017185 9.536967125000 -1.103248125000 -3.350605416667
646 1403638130.500097036362 0.023038346126 -0.083077672395 -0.258308729295 9.079323458333 -1.127764750000 -3.285227750000
647 1403638130.505096912384 0.013264502315 -0.094945911308 -0.264591914602 8.793296166667 -0.833565250000 -3.334261000000
648 1403638130.510097026825 0.004886921906 -0.099832833214 -0.237364778271 8.621679791667 -0.710982125000 -3.407810875000
649 1403638130.515096902847 0.002792526803 -0.101927228316 -0.218515222350 8.891362666667 -0.972492791667 -3.546738416667
650 1403638130.520097017288 0.008377580410 -0.108908545324 -0.219213354050 8.736090708333 -1.307553333333 -3.489532958333
651 1403638130.525096893311 0.009075712110 -0.117286125734 -0.239459173374 8.564474333333 -0.866254083333 -3.424155291667
652 1403638130.530097007751 0.015358897418 -0.128456232947 -0.212930168743 8.450063416667 -0.539365750000 -3.366949833333
653 1403638130.535096883774 0.004188790205 -0.125663706144 -0.194080612822 9.030290208333 -0.547537958333 -3.546738416667
654 1403638130.540096998215 -0.013264502315 -0.109606677025 -0.190589954318 9.046634625000 -0.776359791667 -3.554910625000
655 1403638130.545097112656 -0.008377580410 -0.090058989403 -0.170344134995 9.022118000000 -0.735498750000 -3.399638666667
656 1403638130.550096988678 0.002094395102 -0.072605696883 -0.142418866963 8.915879291667 -0.809048625000 -3.228022291667
657 1403638130.555097103119 -0.001396263402 -0.059341194568 -0.133343154852 9.308145291667 -0.678293291667 -3.358777625000
658 1403638130.560096979141 -0.008377580410 -0.033510321638 -0.122871179340 9.455245041667 -0.514849125000 -3.481360750000
659 1403638130.565097093582 -0.018849555922 -0.001396263402 -0.099134701513 9.455245041667 -0.506676916667 -3.456844125000
660 1403638130.570096969604 -0.024434609528 0.025132741229 -0.086568330899 9.299973083333 -0.572054583333 -3.293399958333
661 1403638130.575097084045 -0.032114058237 0.038397243544 -0.059341194568 9.389867375000 -0.490332500000 -3.448671916667
662 1403638130.580096960068 -0.037699111843 0.072605696883 -0.024434609528 9.528794916667 -0.596571208333 -3.628460500000
663 1403638130.585097074509 -0.036302848441 0.115191730632 0.000698131701 9.569655958333 -0.604743416667 -3.612116083333
664 1403638130.590096950531 -0.034208453339 0.145211393766 0.016057029118 9.373522958333 -0.506676916667 -3.505877375000
665 1403638130.595097064972 -0.034208453339 0.166853476491 0.032812189937 9.242767625000 -0.384093791667 -3.546738416667
666 1403638130.600096940994 -0.027925268032 0.187099295814 0.043284165449 9.079323458333 -0.359577166667 -3.636632708333
667 1403638130.605097055435 -0.023736477827 0.201760061531 0.049567350757 9.038462416667 -0.400438208333 -3.612116083333
668 1403638130.610096931458 -0.018849555922 0.218515222350 0.052359877560 8.932223708333 -0.375921583333 -3.522221791667
669 1403638130.615097045898 -0.014660765717 0.217118958948 0.064926248174 8.981256958333 -0.335060541667 -3.571255041667
670 1403638130.620096921921 -0.011868238914 0.231779724665 0.071209433481 9.161045541667 -0.220649625000 -3.612116083333
671 1403638130.625097036362 -0.009075712110 0.240855436775 0.083775804096 9.120184500000 -0.196133000000 -3.546738416667
672 1403638130.630096912384 -0.007679448709 0.252025543988 0.094945911308 9.103840083333 -0.122583125000 -3.456844125000
673 1403638130.635097026825 -0.012566370614 0.252723675689 0.121474915939 8.948568125000 -0.179788583333 -3.301572166667
674 1403638130.640096902847 -0.016755160819 0.249233017185 0.138928208459 9.095667875000 -0.220649625000 -3.317916583333
675 1403638130.645097017288 -0.017453292520 0.249931148886 0.162664686286 9.152873333333 -0.375921583333 -3.293399958333
676 1403638130.650096893311 -0.018849555922 0.257610597594 0.178721715404 9.381695166667 -0.408610416667 -3.326088791667
677 1403638130.655097007751 -0.016755160819 0.262497519500 0.205948851735 9.332661916667 -0.424954833333 -3.301572166667
678 1403638130.660096883774 -0.007679448709 0.276460153516 0.234572251468 9.373522958333 -0.531193541667 -3.326088791667
679 1403638130.665096998215 -0.002094395102 0.282045207122 0.265290046303 9.144701125000 -0.735498750000 -3.260711125000
680 1403638130.670097112656 0.011868238914 0.289026524130 0.298102236241 9.144701125000 -0.817220833333 -3.293399958333
681 1403638130.675096988678 0.030717794835 0.296007841138 0.333008821281 8.956740333333 -0.858081875000 -3.260711125000
682 1403638130.680097103119 0.045378560552 0.298102236241 0.367217274620 9.062979041667 -0.841737458333 -3.260711125000
683 1403638130.685096979141 0.060737457969 0.306479816650 0.396538806053 8.801468375000 -0.849909666667 -3.178989041667
684 1403638130.690097093582 0.072605696883 0.309970475154 0.423765942384 8.736090708333 -0.719154333333 -3.064578125000
685 1403638130.695096969604 0.083775804096 0.314159265359 0.449596815314 8.572646541667 -0.719154333333 -2.950167208333
686 1403638130.700097084045 0.090757121104 0.312064870257 0.474031424842 8.736090708333 -0.743670958333 -2.950167208333
687 1403638130.705096960068 0.095644043009 0.315555528761 0.492880980763 8.678885250000 -0.817220833333 -2.917478375000
688 1403638130.710097074509 0.103323491718 0.322536845769 0.510334273283 8.915879291667 -0.841737458333 -2.950167208333
689 1403638130.715096950531 0.111002940427 0.337197611485 0.522900643898 8.793296166667 -0.825393041667 -2.852100708333
690 1403638130.720097064972 0.113795467230 0.329518162777 0.535467014512 8.736090708333 -0.825393041667 -2.901133958333
691 1403638130.725096940994 0.117984257435 0.332310689580 0.545240858323 8.629852000000 -0.882598500000 -2.876617333333
692 1403638130.730097055435 0.123569311041 0.314857397060 0.556410965536 8.417374583333 -1.013353833333 -2.868445125000
693 1403638130.735096931458 0.133343154852 0.294611577737 0.566184809347 8.433719000000 -1.054214875000 -2.852100708333
694 1403638130.740097045898 0.140324471860 0.271573231610 0.575260521457 8.515441083333 -1.037870458333 -2.982856041667
695 1403638130.745096921921 0.152890842475 0.250629280586 0.571071731253 8.392857958333 -1.095075916667 -2.982856041667
696 1403638130.750097036362 0.163362817987 0.226892802759 0.568279204449 8.384685750000 -1.103248125000 -2.901133958333
697 1403638130.755096912384 0.171042266695 0.208741378539 0.550825911929 8.368341333333 -0.988837208333 -2.835756291667
698 1403638130.760097026825 0.168947871593 0.185004900711 0.532674487709 8.531785500000 -0.866254083333 -2.843928500000
699 1403638130.765096902847 0.164759081388 0.177325452003 0.506843614779 8.760607333333 -0.710982125000 -2.884789541667
700 1403638130.770097017288 0.154985237577 0.169646003294 0.479616478448 8.768779541667 -0.743670958333 -2.876617333333
701 1403638130.775096893311 0.143815130364 0.171042266695 0.439124839802 8.727918500000 -0.817220833333 -2.811239666667
702 1403638130.780097007751 0.135437549955 0.160570291183 0.402123859659 8.556302125000 -0.882598500000 -2.803067458333
703 1403638130.785096883774 0.131946891451 0.150098315672 0.363726616116 8.646196416667 -0.841737458333 -2.843928500000
704 1403638130.790096998215 0.125663706144 0.131946891451 0.327423767674 8.515441083333 -0.939803958333 -2.892961750000
705 1403638130.795097112656 0.117286125734 0.119380520836 0.284837733925 8.572646541667 -0.931631750000 -2.925650583333
706 1403638130.800096988678 0.111701072128 0.099832833214 0.252723675689 8.351996916667 -1.021526041667 -2.917478375000
707 1403638130.805097103119 0.108908545324 0.087964594301 0.227590934460 8.335652500000 -1.013353833333 -2.966511625000
708 1403638130.810096979141 0.102625360017 0.074700091985 0.210137641940 8.049625208333 -0.972492791667 -2.925650583333
709 1403638130.815097093582 0.101229096616 0.060737457969 0.189891822617 8.057797416667 -0.833565250000 -2.966511625000
710 1403638130.820096969604 0.094247779608 0.046774823953 0.173834793499 7.902525458333 -0.866254083333 -2.950167208333
711 1403638130.825097084045 0.092153384505 0.036302848441 0.152192710774 8.008764166667 -0.841737458333 -2.966511625000
712 1403638130.830096960068 0.090058989403 0.035604716741 0.138230076758 7.845320000000 -0.931631750000 -2.868445125000
713 1403638130.835097074509 0.091455252805 0.032812189937 0.131248759750 7.902525458333 -0.964320583333 -2.811239666667
714 1403638130.840096950531 0.092851516206 0.038397243544 0.128456232947 7.747253500000 -0.939803958333 -2.745862000000
715 1403638130.845097064972 0.092153384505 0.040491638646 0.131946891451 7.837147791667 -0.882598500000 -2.729517583333
716 1403638130.850096940994 0.091455252805 0.053058009261 0.134739418254 7.763597916667 -0.964320583333 -2.737689791667
717 1403638130.855097055435 0.089360857702 0.060737457969 0.142418866963 7.886181041667 -1.013353833333 -2.778550833333
718 1403638130.860096931458 0.091455252805 0.073303828584 0.143116998664 7.771770125000 -1.095075916667 -2.737689791667
719 1403638130.865097045898 0.098436569812 0.079587013891 0.148003920569 7.812631166667 -1.005181625000 -2.778550833333
720 1403638130.870096921921 0.105417886820 0.082379540694 0.152890842475 7.657359208333 -0.980665000000 -2.737689791667
721 1403638130.875097036362 0.106116018521 0.084473935797 0.157777764380 7.812631166667 -0.809048625000 -2.737689791667
722 1403638130.880096912384 0.099134701513 0.093549647907 0.158475896081 7.869836625000 -0.629260041667 -2.803067458333
723 1403638130.885097026825 0.082379540694 0.106814150222 0.154985237577 8.008764166667 -0.473988083333 -2.819411875000
724 1403638130.890096902847 0.059341194568 0.124267442742 0.149400183971 8.057797416667 -0.441299250000 -2.770378625000
725 1403638130.895097017288 0.034906585040 0.145211393766 0.152890842475 8.065969625000 -0.408610416667 -2.745862000000
726 1403638130.900096893311 0.009075712110 0.174532925199 0.148702052270 8.131347291667 -0.416782625000 -2.737689791667
727 1403638130.905097007751 -0.015358897418 0.197571271326 0.144513262065 8.123175083333 -0.506676916667 -2.672312125000
728 1403638130.910096883774 -0.043284165449 0.233874119767 0.137531945057 8.155863916667 -0.645604458333 -2.696828750000
729 1403638130.915096998215 -0.059341194568 0.259704992697 0.136135681656 8.204897166667 -0.792704208333 -2.647795500000
730 1403638130.920097112656 -0.069813170080 0.296007841138 0.135437549955 8.147691708333 -0.825393041667 -2.655967708333
731 1403638130.925096988678 -0.075398223686 0.323234977469 0.141720735262 7.943386500000 -0.833565250000 -2.557901208333
732 1403638130.930097103119 -0.080285145592 0.349763982100 0.142418866963 7.910697666667 -0.776359791667 -2.500695750000
733 1403638130.935096979141 -0.092153384505 0.364424747816 0.145909525467 7.673703625000 -0.841737458333 -2.459834708333
734 1403638130.940097093582 -0.106116018521 0.381179908636 0.141720735262 7.714564666667 -0.809048625000 -2.508867958333
735 1403638130.945096969604 -0.108210413624 0.402821991360 0.145211393766 7.591981541667 -0.874426291667 -2.369940416667
736 1403638130.950097084045 -0.113097335529 0.416086493675 0.142418866963 7.698220250000 -0.809048625000 -2.361768208333
737 1403638130.955096960068 -0.114493598931 0.432143522794 0.146607657168 7.567464916667 -0.776359791667 -2.263701708333
738 1403638130.960097074509 -0.122871179340 0.448898683613 0.144513262065 7.583809333333 -0.735498750000 -2.247357291667
739 1403638130.965096950531 -0.128456232947 0.458672527424 0.157777764380 7.412192958333 -0.833565250000 -2.141118583333
740 1403638130.970097064972 -0.132645023152 0.462163185928 0.152192710774 7.526603875000 -1.005181625000 -2.116601958333
741 1403638130.975096940994 -0.129154364648 0.460068790826 0.154985237577 7.453054000000 -1.266692291667 -2.059396500000
742 1403638130.980097055435 -0.121474915939 0.455181868920 0.159174027782 7.583809333333 -1.356586583333 -2.018535458333
743 1403638130.985096931458 -0.117984257435 0.449596815314 0.166155344790 7.453054000000 -1.430136458333 -1.912296750000
744 1403638130.990097045898 -0.111002940427 0.437728576400 0.171042266695 7.583809333333 -1.462825291667 -1.871435708333
745 1403638130.995096921921 -0.100530964915 0.428652864290 0.177325452003 7.567464916667 -1.577236208333 -1.773369208333
746 1403638131.000097036362 -0.090757121104 0.420275283880 0.186401164113 7.698220250000 -1.569064000000 -1.748852583333
747 1403638131.005096912384 -0.081681408993 0.419577152179 0.196175007924 7.657359208333 -1.577236208333 -1.667130500000
748 1403638131.010097026825 -0.076096355387 0.409803308368 0.196873139625 7.698220250000 -1.470997500000 -1.699819333333
749 1403638131.015096902847 -0.072605696883 0.396538806053 0.196873139625 7.559292708333 -1.430136458333 -1.683474916667
750 1403638131.020097017288 -0.065624379875 0.372104196525 0.191986217719 7.559292708333 -1.381103208333 -1.683474916667
751 1403638131.025096893311 -0.062133721371 0.353952772304 0.180117978806 7.534776083333 -1.397447625000 -1.740680375000
752 1403638131.030097007751 -0.065624379875 0.330216294477 0.164759081388 7.706392458333 -1.299381125000 -1.797885833333
753 1403638131.035096883774 -0.066322511576 0.319046187265 0.145909525467 7.673703625000 -1.168625791667 -1.773369208333
754 1403638131.040096998215 -0.066322511576 0.294611577737 0.129852496348 7.600153750000 -1.013353833333 -1.707991541667
755 1403638131.045097112656 -0.075398223686 0.273667626713 0.111002940427 7.461226208333 -0.874426291667 -1.707991541667
756 1403638131.050096988678 -0.085870199198 0.242949831878 0.094247779608 7.363159708333 -0.825393041667 -1.609925041667
757 1403638131.055097103119 -0.097738438112 0.217118958948 0.067718774977 7.428537375000 -0.825393041667 -1.658958291667
758 1403638131.060096979141 -0.101927228316 0.190589954318 0.050963614158 7.338643083333 -1.029698250000 -1.707991541667
759 1403638131.065097093582 -0.100530964915 0.169646003294 0.020245819323 7.436709583333 -1.152281375000 -1.716163750000
760 1403638131.070096969604 -0.101927228316 0.138230076758 0.002792526803 7.395848541667 -1.364758791667 -1.707991541667
761 1403638131.075097084045 -0.090058989403 0.109606677025 -0.013264502315 7.395848541667 -1.552719583333 -1.707991541667
762 1403638131.080096960068 -0.071209433481 0.073303828584 -0.018151424221 7.346815291667 -1.732508166667 -1.699819333333
763 1403638131.085097074509 -0.053058009261 0.042586033749 -0.025132741229 7.534776083333 -1.822402458333 -1.757024791667
764 1403638131.090096950531 -0.040491638646 0.011868238914 -0.029321531434 7.583809333333 -1.895952333333 -1.765197000000
765 1403638131.095097064972 -0.032812189937 -0.018151424221 -0.034208453339 7.779942333333 -1.797885833333 -1.838746875000
766 1403638131.100096940994 -0.026529004630 -0.049567350757 -0.039793506945 7.722736875000 -1.748852583333 -1.814230250000
767 1403638131.105097055435 -0.025830872930 -0.078888882190 -0.048869219056 7.861664416667 -1.593580625000 -1.814230250000
768 1403638131.110096931458 -0.025830872930 -0.106116018521 -0.060737457969 7.788114541667 -1.495514125000 -1.773369208333
769 1403638131.115097045898 -0.025132741229 -0.124965574443 -0.067718774977 7.918869875000 -1.364758791667 -1.806058041667
770 1403638131.120096921921 -0.034906585040 -0.150098315672 -0.078888882190 7.837147791667 -1.299381125000 -1.765197000000
771 1403638131.125097036362 -0.035604716741 -0.169646003294 -0.096342174710 7.959730916667 -1.234003458333 -1.846919083333
772 1403638131.130096912384 -0.040491638646 -0.197571271326 -0.111002940427 7.796286750000 -1.234003458333 -1.846919083333
773 1403638131.135097026825 -0.044680428851 -0.222005880854 -0.129852496348 7.935214291667 -1.291208916667 -1.912296750000
774 1403638131.140096902847 -0.043982297150 -0.246440490382 -0.150098315672 7.902525458333 -1.323897750000 -1.953157791667
775 1403638131.145097017288 -0.046076692253 -0.271573231610 -0.161268422884 8.115002875000 -1.291208916667 -2.075740916667
776 1403638131.150096893311 -0.043284165449 -0.290422787532 -0.184306769011 8.213069375000 -1.323897750000 -2.083913125000
777 1403638131.155097007751 -0.042586033749 -0.307177948351 -0.205948851735 8.409202375000 -1.372931000000 -2.190151833333
778 1403638131.160096883774 -0.041887902048 -0.320442450666 -0.226892802759 8.490924458333 -1.487341916667 -2.222840666667
779 1403638131.165096998215 -0.034906585040 -0.335103216383 -0.246440490382 8.629852000000 -1.495514125000 -2.231012875000
780 1403638131.170097112656 -0.031415926536 -0.339990138288 -0.270176968209 8.678885250000 -1.389275416667 -2.239185083333
781 1403638131.175096988678 -0.025830872930 -0.349065850399 -0.285535865626 8.760607333333 -1.242175666667 -2.312734958333
782 1403638131.180097103119 -0.034906585040 -0.353952772304 -0.301592894745 8.736090708333 -1.152281375000 -2.361768208333
783 1403638131.185096979141 -0.041189770347 -0.359537825911 -0.314857397060 8.703401875000 -1.037870458333 -2.378112625000
784 1403638131.190097093582 -0.048869219056 -0.367217274620 -0.328121899375 8.597163166667 -0.874426291667 -2.410801458333
785 1403638131.195096969604 -0.058643062867 -0.381878040336 -0.328820031076 8.466407833333 -0.866254083333 -2.459834708333
786 1403638131.200097084045 -0.069115038379 -0.388859357344 -0.338593874887 8.531785500000 -0.743670958333 -2.500695750000
787 1403638131.205096960068 -0.075398223686 -0.405614518163 -0.339990138288 8.531785500000 -0.841737458333 -2.533384583333
788 1403638131.210097074509 -0.074001960285 -0.413992098573 -0.353254640604 8.703401875000 -0.874426291667 -2.574245625000
789 1403638131.215096950531 -0.075398223686 -0.418879020479 -0.353952772304 8.719746291667 -0.980665000000 -2.598762250000
790 1403638131.220097064972 -0.069115038379 -0.419577152179 -0.352556508903 8.866846041667 -0.972492791667 -2.639623291667
791 1403638131.225096940994 -0.062133721371 -0.413992098573 -0.337197611485 8.825985000000 -0.947976166667 -2.672312125000
792 1403638131.230097055435 -0.053756140961 -0.402123859659 -0.328820031076 8.899534875000 -0.841737458333 -2.721345375000
793 1403638131.235096931458 -0.045378560552 -0.398633201156 -0.319046187265 8.825985000000 -0.882598500000 -2.762206416667
794 1403638131.240097045898 -0.039793506945 -0.385368698840 -0.306479816650 8.940395916667 -0.817220833333 -2.835756291667
795 1403638131.245096921921 -0.035604716741 -0.384670567140 -0.286932129028 8.842329416667 -0.825393041667 -2.827584083333
796 1403638131.250097036362 -0.027227136331 -0.369311669722 -0.274365758414 8.989429166667 -0.809048625000 -2.876617333333
797 1403638131.255096912384 -0.022340214426 -0.351160245501 -0.252025543988 8.915879291667 -0.841737458333 -2.892961750000
798 1403638131.260097026825 -0.015358897418 -0.337895743186 -0.231081592964 9.046634625000 -0.694637708333 -2.901133958333
799 1403638131.265096902847 -0.011170107213 -0.321140582367 -0.209439510239 8.948568125000 -0.670121083333 -2.901133958333
800 1403638131.270097017288 -0.009773843811 -0.300196631343 -0.184306769011 9.112012291667 -0.629260041667 -2.941995000000
801 1403638131.275096893311 -0.008377580410 -0.279252680319 -0.171740398396 9.030290208333 -0.629260041667 -2.974683833333
802 1403638131.280097007751 -0.002094395102 -0.259704992697 -0.151494579073 9.185562166667 -0.604743416667 -3.064578125000
803 1403638131.285096883774 0.006981317008 -0.231081592964 -0.133343154852 9.030290208333 -0.694637708333 -3.080922541667
804 1403638131.290096998215 0.012566370614 -0.217817090649 -0.119380520836 9.136528916667 -0.670121083333 -3.105439166667
805 1403638131.295097112656 0.018849555922 -0.201760061531 -0.104719755120 9.136528916667 -0.686465500000 -3.138128000000
806 1403638131.300096988678 0.021642082725 -0.190589954318 -0.090058989403 9.275456458333 -0.523021333333 -3.162644625000
807 1403638131.305097103119 0.019547687622 -0.176627320302 -0.080983277293 9.185562166667 -0.384093791667 -3.219850083333
808 1403638131.310096979141 0.020245819323 -0.164060949687 -0.059341194568 9.136528916667 -0.245166250000 -3.203505666667
809 1403638131.315097093582 0.004886921906 -0.150796447372 -0.048869219056 9.062979041667 -0.114410916667 -3.228022291667
810 1403638131.320096969604 -0.009075712110 -0.143815130364 -0.037000980142 9.030290208333 -0.032688833333 -3.326088791667
811 1403638131.325097084045 -0.025132741229 -0.124965574443 -0.032114058237 9.071151250000 -0.016344416667 -3.350605416667
812 1403638131.330096960068 -0.039095375245 -0.113795467230 -0.018849555922 9.038462416667 -0.171616375000 -3.342433208333
813 1403638131.335097074509 -0.050265482457 -0.090757121104 -0.015358897418 9.013945791667 -0.302371708333 -3.309744375000
814 1403638131.340096950531 -0.053756140961 -0.071209433481 -0.002094395102 8.997601375000 -0.359577166667 -3.244366708333
815 1403638131.345097064972 -0.055850536064 -0.048869219056 0.011868238914 8.964912541667 -0.457643666667 -3.252538916667
816 1403638131.350096940994 -0.058643062867 -0.029321531434 0.032812189937 8.932223708333 -0.588399000000 -3.236194500000
817 1403638131.355097055435 -0.055850536064 -0.000698131701 0.050963614158 8.973084750000 -0.612915625000 -3.203505666667
818 1403638131.360096931458 -0.054454272662 0.015358897418 0.074700091985 8.883190458333 -0.727326541667 -3.244366708333
819 1403638131.365097045898 -0.052359877560 0.028623399733 0.094247779608 8.842329416667 -0.719154333333 -3.260711125000
820 1403638131.370096921921 -0.048869219056 0.029321531434 0.117286125734 8.646196416667 -0.768187583333 -3.236194500000
821 1403638131.375097036362 -0.046774823953 0.030019663134 0.131946891451 8.744262916667 -0.735498750000 -3.219850083333
822 1403638131.380096912384 -0.045378560552 0.028623399733 0.143116998664 8.588990958333 -0.792704208333 -3.170816833333
823 1403638131.385097026825 -0.042586033749 0.026529004630 0.158475896081 8.776951750000 -0.760015375000 -3.170816833333
824 1403638131.390096902847 -0.038397243544 0.024434609528 0.164060949687 8.719746291667 -0.825393041667 -3.113611375000
825 1403638131.395097017288 -0.026529004630 0.027227136331 0.165457213089 8.932223708333 -0.825393041667 -3.129955791667
826 1403638131.400096893311 -0.024434609528 0.032114058237 0.163362817987 8.956740333333 -0.809048625000 -3.072750333333
827 1403638131.405097007751 -0.025830872930 0.045378560552 0.155683369278 9.201906583333 -0.727326541667 -3.129955791667
828 1403638131.410096883774 -0.026529004630 0.057246799465 0.139626340160 9.152873333333 -0.710982125000 -3.129955791667
829 1403638131.415096998215 -0.032812189937 0.072605696883 0.122871179340 9.267284250000 -0.686465500000 -3.236194500000
830 1403638131.420097112656 -0.034208453339 0.085870199198 0.101229096616 9.112012291667 -0.637432250000 -3.162644625000
831 1403638131.425096988678 -0.044680428851 0.087964594301 0.078888882190 9.152873333333 -0.572054583333 -3.203505666667
832 1403638131.430097103119 -0.050963614158 0.087964594301 0.052359877560 9.079323458333 -0.514849125000 -3.187161250000
833 1403638131.435096979141 -0.063529984773 0.088662726001 0.031415926536 9.062979041667 -0.392266000000 -3.236194500000
834 1403638131.440097093582 -0.076096355387 0.088662726001 -0.010471975512 8.981256958333 -0.400438208333 -3.203505666667
835 1403638131.445096969604 -0.082379540694 0.078190750489 -0.039095375245 8.956740333333 -0.375921583333 -3.228022291667
836 1403638131.450097084045 -0.095644043009 0.068416906678 -0.074700091985 8.891362666667 -0.286027291667 -3.195333458333
837 1403638131.455096960068 -0.105417886820 0.050963614158 -0.102625360017 8.858673833333 -0.228821833333 -3.203505666667
838 1403638131.460097074509 -0.117984257435 0.039095375245 -0.136833813356 8.695229666667 -0.245166250000 -3.129955791667
839 1403638131.465096950531 -0.133343154852 0.019547687622 -0.151494579073 8.548129916667 -0.310543916667 -3.064578125000
840 1403638131.470097064972 -0.142418866963 0.005585053606 -0.158475896081 8.474580041667 -0.408610416667 -2.982856041667
841 1403638131.475096940994 -0.150098315672 -0.018849555922 -0.152890842475 8.401030166667 -0.596571208333 -2.901133958333
842 1403638131.480097055435 -0.153588974176 -0.032812189937 -0.145909525467 8.523613291667 -0.719154333333 -2.843928500000
843 1403638131.485096931458 -0.148003920569 -0.047472955654 -0.127758101246 8.531785500000 -0.956148375000 -2.843928500000
844 1403638131.490097045898 -0.138230076758 -0.056548667765 -0.113097335529 8.613507583333 -1.078731500000 -2.819411875000
845 1403638131.495096921921 -0.120776784238 -0.054454272662 -0.078888882190 8.531785500000 -1.201314625000 -2.803067458333
846 1403638131.500097036362 -0.094945911308 -0.060039326269 -0.053756140961 8.523613291667 -1.242175666667 -2.811239666667
847 1403638131.505096912384 -0.076096355387 -0.070511301781 -0.021642082725 8.499096666667 -1.274864500000 -2.811239666667
848 1403638131.510097026825 -0.056548667765 -0.081681408993 -0.003490658504 8.638024208333 -1.184970208333 -2.909306166667
849 1403638131.515096902847 -0.033510321638 -0.087266462600 0.019547687622 8.580818750000 -1.127764750000 -2.852100708333
850 1403638131.520097017288 -0.016057029118 -0.094945911308 0.036302848441 8.785123958333 -0.939803958333 -2.917478375000
851 1403638131.525096893311 -0.009773843811 -0.099832833214 0.051661745859 8.703401875000 -0.800876416667 -2.909306166667
852 1403638131.530097007751 -0.001396263402 -0.107512281923 0.060039326269 8.834157208333 -0.596571208333 -2.901133958333
853 1403638131.535096883774 0.001396263402 -0.111701072128 0.067718774977 8.842329416667 -0.506676916667 -2.901133958333
854 1403638131.540096998215 0.000000000000 -0.111002940427 0.071209433481 9.030290208333 -0.375921583333 -3.056405916667
855 1403638131.545097112656 -0.004886921906 -0.102625360017 0.070511301781 8.997601375000 -0.286027291667 -3.040061500000
856 1403638131.550096988678 -0.011868238914 -0.094247779608 0.062831853072 9.087495666667 -0.179788583333 -3.121783583333
857 1403638131.555097103119 -0.016755160819 -0.090058989403 0.053756140961 8.924051500000 -0.196133000000 -3.121783583333
858 1403638131.560096979141 -0.020245819323 -0.090757121104 0.044680428851 8.940395916667 -0.220649625000 -3.138128000000
859 1403638131.565097093582 -0.024434609528 -0.098436569812 0.032114058237 8.752435125000 -0.228821833333 -3.121783583333
860 1403638131.570096969604 -0.023038346126 -0.113795467230 0.024434609528 8.834157208333 -0.245166250000 -3.154472416667
861 1403638131.575097084045 -0.020943951024 -0.126361837844 0.007679448709 8.850501625000 -0.335060541667 -3.105439166667
862 1403638131.580096960068 -0.025132741229 -0.139626340160 -0.003490658504 8.989429166667 -0.367749375000 -3.113611375000
863 1403638131.585097074509 -0.020943951024 -0.148003920569 -0.013264502315 9.022118000000 -0.441299250000 -3.146300208333
864 1403638131.590096950531 -0.022340214426 -0.160570291183 -0.018151424221 9.136528916667 -0.482160291667 -3.080922541667
865 1403638131.595097064972 -0.017453292520 -0.156381500979 -0.026529004630 9.210078791667 -0.612915625000 -3.015544875000
866 1403638131.600096940994 -0.007679448709 -0.153588974176 -0.032114058237 9.324489708333 -0.719154333333 -3.040061500000
867 1403638131.605097055435 -0.001396263402 -0.131946891451 -0.039793506945 9.414384000000 -0.661948875000 -3.007372666667
868 1403638131.610096931458 0.006981317008 -0.119380520836 -0.037000980142 9.365350750000 -0.694637708333 -2.933822791667
869 1403638131.615097045898 0.008377580410 -0.091455252805 -0.039793506945 9.275456458333 -0.637432250000 -2.974683833333
870 1403638131.620096921921 0.016755160819 -0.069115038379 -0.028623399733 9.218251000000 -0.629260041667 -3.056405916667
871 1403638131.625097036362 0.018151424221 -0.040491638646 -0.027227136331 9.234595416667 -0.580226791667 -3.089094750000
872 1403638131.630096912384 0.018849555922 -0.029321531434 -0.017453292520 9.038462416667 -0.580226791667 -3.105439166667
873 1403638131.635097026825 0.017453292520 -0.008377580410 -0.012566370614 9.095667875000 -0.498504708333 -3.162644625000
874 1403638131.640096902847 0.012566370614 0.000698131701 -0.006283185307 8.948568125000 -0.400438208333 -3.146300208333
875 1403638131.645097017288 0.004188790205 0.015358897418 -0.006283185307 9.038462416667 -0.236994041667 -3.138128000000
876 1403638131.650096893311 -0.003490658504 0.016755160819 -0.002094395102 8.842329416667 -0.204305208333 -3.162644625000
877 1403638131.655097007751 -0.014660765717 0.020245819323 -0.006283185307 8.932223708333 -0.106238708333 -3.195333458333
878 1403638131.660096883774 -0.022340214426 0.022340214426 -0.009075712110 8.883190458333 -0.138927541667 -3.219850083333
879 1403638131.665096998215 -0.036302848441 0.025132741229 -0.020943951024 9.013945791667 -0.089894291667 -3.342433208333
880 1403638131.670097112656 -0.045378560552 0.030019663134 -0.023038346126 8.817812791667 -0.171616375000 -3.358777625000
881 1403638131.675096988678 -0.049567350757 0.033510321638 -0.030019663134 8.850501625000 -0.196133000000 -3.375122041667
882 1403638131.680097103119 -0.057246799465 0.030019663134 -0.031415926536 8.580818750000 -0.351404958333 -3.301572166667
883 1403638131.685096979141 -0.055152404363 0.023736477827 -0.028623399733 8.703401875000 -0.433127041667 -3.293399958333
884 1403638131.690097093582 -0.056548667765 0.014660765717 -0.028623399733 8.572646541667 -0.612915625000 -3.252538916667
885 1403638131.695096969604 -0.054454272662 0.002094395102 -0.021642082725 8.695229666667 -0.694637708333 -3.211677875000
886 1403638131.700097084045 -0.048869219056 -0.000698131701 -0.017453292520 8.736090708333 -0.809048625000 -3.080922541667
887 1403638131.705096960068 -0.046076692253 -0.004886921906 -0.004886921906 9.054806833333 -0.849909666667 -3.040061500000
888 1403638131.710097074509 -0.037699111843 -0.003490658504 0.004188790205 9.120184500000 -0.890770708333 -2.982856041667
889 1403638131.715096950531 -0.024434609528 0.004188790205 0.011868238914 9.381695166667 -0.809048625000 -3.015544875000
890 1403638131.720097064972 -0.020943951024 0.018151424221 0.013264502315 9.463417250000 -0.710982125000 -3.031889291667
891 1403638131.725096940994 -0.020245819323 0.029321531434 0.009075712110 9.455245041667 -0.563882375000 -3.089094750000
892 1403638131.730097055435 -0.021642082725 0.040491638646 -0.002792526803 9.324489708333 -0.457643666667 -3.211677875000
893 1403638131.735096931458 -0.023038346126 0.040491638646 -0.016755160819 9.177389958333 -0.433127041667 -3.301572166667
894 1403638131.740097045898 -0.023038346126 0.037000980142 -0.034906585040 9.013945791667 -0.384093791667 -3.456844125000
895 1403638131.745096921921 -0.032114058237 0.021642082725 -0.051661745859 8.948568125000 -0.351404958333 -3.505877375000
896 1403638131.750097036362 -0.040491638646 0.012566370614 -0.076096355387 8.989429166667 -0.228821833333 -3.603943875000
897 1403638131.755096912384 -0.053058009261 -0.000698131701 -0.092153384505 9.013945791667 -0.163444166667 -3.612116083333
898 1403638131.760097026825 -0.068416906678 -0.006981317008 -0.118682389136 9.218251000000 -0.089894291667 -3.571255041667
899 1403638131.765096902847 -0.086568330899 -0.007679448709 -0.141720735262 9.357178541667 -0.081722083333 -3.538566208333
900 1403638131.770097017288 -0.111002940427 0.001396263402 -0.162664686286 9.447072833333 -0.040861041667 -3.497705166667
901 1403638131.775096893311 -0.127758101246 0.004188790205 -0.173136661798 9.389867375000 -0.024516625000 -3.415983083333
902 1403638131.780097007751 -0.142418866963 0.004886921906 -0.189193690916 9.373522958333 0.032688833333 -3.391466458333
903 1403638131.785096883774 -0.154985237577 -0.004188790205 -0.193382481121 9.193734375000 0.000000000000 -3.326088791667
904 1403638131.790096998215 -0.161966554585 -0.015358897418 -0.201760061531 9.193734375000 -0.016344416667 -3.358777625000
905 1403638131.795097112656 -0.164759081388 -0.025830872930 -0.198967534727 9.038462416667 -0.236994041667 -3.326088791667
906 1403638131.800096988678 -0.163362817987 -0.044680428851 -0.199665666428 9.054806833333 -0.318716125000 -3.309744375000
907 1403638131.805097103119 -0.152192710774 -0.062831853072 -0.195476876223 8.948568125000 -0.523021333333 -3.219850083333
908 1403638131.810096979141 -0.141720735262 -0.083775804096 -0.187797427515 9.136528916667 -0.604743416667 -3.260711125000
909 1403638131.815097093582 -0.131248759750 -0.087964594301 -0.169646003294 9.210078791667 -0.661948875000 -3.244366708333
910 1403638131.820096969604 -0.121474915939 -0.087964594301 -0.142418866963 9.479761666667 -0.735498750000 -3.211677875000
911 1403638131.825097084045 -0.108210413624 -0.076794487088 -0.111002940427 9.569655958333 -0.825393041667 -3.211677875000
912 1403638131.830096960068 -0.098436569812 -0.055850536064 -0.085870199198 9.847511041667 -0.849909666667 -3.285227750000
913 1403638131.835097074509 -0.093549647907 -0.034208453339 -0.063529984773 9.798477791667 -0.768187583333 -3.342433208333
914 1403638131.840096950531 -0.085870199198 -0.011868238914 -0.048171087355 9.945577541667 -0.555710166667 -3.440499708333
915 1403638131.845097064972 -0.081681408993 0.009075712110 -0.039793506945 9.757616750000 -0.400438208333 -3.465016333333
916 1403638131.850096940994 -0.079587013891 0.016057029118 -0.033510321638 9.684066875000 -0.253338458333 -3.563082833333
917 1403638131.855097055435 -0.083775804096 0.023038346126 -0.027925268032 9.602344791667 -0.057205458333 -3.620288291667
918 1403638131.860096931458 -0.088662726001 0.011170107213 -0.028623399733 9.586000375000 0.114410916667 -3.685665958333
919 1403638131.865097045898 -0.091455252805 0.000698131701 -0.035604716741 9.520622708333 0.261510666667 -3.710182583333
920 1403638131.870096921921 -0.094247779608 -0.019547687622 -0.042586033749 9.610517000000 0.384093791667 -3.652977125000
921 1403638131.875097036362 -0.104021623419 -0.027227136331 -0.050963614158 9.651378041667 0.416782625000 -3.514049583333
922 1403638131.880096912384 -0.108908545324 -0.039095375245 -0.053756140961 9.798477791667 0.351404958333 -3.481360750000
923 1403638131.885097026825 -0.119380520836 -0.039095375245 -0.060737457969 9.912888708333 0.269682875000 -3.456844125000
924 1403638131.890096902847 -0.123569311041 -0.039095375245 -0.059341194568 10.076332875000 0.032688833333 -3.399638666667
925 1403638131.895097017288 -0.125663706144 -0.027227136331 -0.051661745859 10.264293666667 -0.196133000000 -3.399638666667
926 1403638131.900096893311 -0.122871179340 -0.019547687622 -0.035604716741 10.346015750000 -0.465815875000 -3.399638666667
927 1403638131.905097007751 -0.108908545324 -0.002094395102 -0.027925268032 10.533976541667 -0.735498750000 -3.366949833333
928 1403638131.910096883774 -0.092851516206 0.006981317008 -0.015358897418 10.517632125000 -1.013353833333 -3.366949833333
929 1403638131.915096998215 -0.069115038379 0.016755160819 -0.011868238914 10.648387458333 -1.013353833333 -3.465016333333
930 1403638131.920097112656 -0.045378560552 0.020245819323 -0.002094395102 10.558493166667 -1.062387083333 -3.530394000000
931 1403638131.925096988678 -0.020943951024 0.020245819323 -0.006283185307 10.599354208333 -0.858081875000 -3.554910625000
932 1403638131.930097103119 0.004188790205 0.012566370614 -0.007679448709 10.460426666667 -0.621087833333 -3.579427250000
933 1403638131.935096979141 0.013962634016 0.002792526803 -0.018151424221 10.607526416667 -0.286027291667 -3.669321541667
934 1403638131.940097093582 0.014660765717 -0.012566370614 -0.032812189937 10.468598875000 -0.089894291667 -3.702010375000
935 1403638131.945096969604 0.002792526803 -0.030019663134 -0.060039326269 10.583009791667 0.147099750000 -3.759215833333
936 1403638131.950097084045 -0.001396263402 -0.047472955654 -0.080983277293 10.501287708333 0.204305208333 -3.742871416667
937 1403638131.955096960068 -0.007679448709 -0.069115038379 -0.103323491718 10.705592916667 0.269682875000 -3.832765708333
938 1403638131.960097074509 -0.019547687622 -0.085172067497 -0.126361837844 10.656559666667 0.245166250000 -3.791904666667
939 1403638131.965096950531 -0.029321531434 -0.102625360017 -0.151494579073 10.828176041667 0.277855083333 -3.751043625000
940 1403638131.970097064972 -0.034208453339 -0.115889862332 -0.180117978806 10.803659416667 0.106238708333 -3.710182583333
941 1403638131.975096940994 -0.040491638646 -0.126361837844 -0.205250720035 11.081514500000 -0.040861041667 -3.751043625000
942 1403638131.980097055435 -0.043982297150 -0.126361837844 -0.241553568476 11.138719958333 -0.261510666667 -3.751043625000
943 1403638131.985096931458 -0.032812189937 -0.124267442742 -0.261799387799 11.367541791667 -0.384093791667 -3.783732458333
944 1403638131.990097045898 -0.021642082725 -0.117286125734 -0.275063890114 11.204097625000 -0.572054583333 -3.710182583333
945 1403638131.995096921921 -0.007679448709 -0.122871179340 -0.279252680319 11.179581000000 -0.645604458333 -3.685665958333
946 1403638132.000097036362 0.005585053606 -0.125663706144 -0.283441470524 11.097858916667 -0.637432250000 -3.767388041667
947 1403638132.005096912384 0.017453292520 -0.132645023152 -0.279252680319 11.106031125000 -0.637432250000 -3.824593500000
948 1403638132.010097026825 0.033510321638 -0.138928208459 -0.279252680319 11.056997875000 -0.563882375000 -3.840937916667
949 1403638132.015096902847 0.041887902048 -0.148003920569 -0.275063890114 11.048825666667 -0.473988083333 -3.857282333333
950 1403638132.020097017288 0.039095375245 -0.159174027782 -0.284837733925 11.024309041667 -0.375921583333 -3.889971166667
951 1403638132.025096893311 0.048869219056 -0.178023583703 -0.281347075421 11.048825666667 -0.228821833333 -3.996209875000
952 1403638132.030097007751 0.053756140961 -0.187099295814 -0.285535865626 11.195925416667 -0.114410916667 -4.069759750000
953 1403638132.035096883774 0.053058009261 -0.202458193231 -0.286932129028 11.228614250000 0.032688833333 -4.118793000000
954 1403638132.040096998215 0.048869219056 -0.215024563846 -0.291819050933 11.228614250000 0.212477416667 -4.094276375000
955 1403638132.045097112656 0.041189770347 -0.233874119767 -0.292517182634 11.204097625000 0.326888333333 -4.069759750000
956 1403638132.050096988678 0.039095375245 -0.245044226980 -0.297404104540 11.326680750000 0.433127041667 -4.086104166667
957 1403638132.055097103119 0.032812189937 -0.257610597594 -0.292517182634 11.416575041667 0.473988083333 -4.135137416667
958 1403638132.060096979141 0.027227136331 -0.258308729295 -0.295309709437 11.653569083333 0.433127041667 -4.216859500000
959 1403638132.065097093582 0.027925268032 -0.254119939090 -0.287630260729 11.661741291667 0.286027291667 -4.216859500000
960 1403638132.070096969604 0.027925268032 -0.252723675689 -0.289724655831 11.784324416667 0.212477416667 -4.249548333333
961 1403638132.075097084045 0.030019663134 -0.247138622082 -0.285535865626 11.808841041667 0.106238708333 -4.257720541667
962 1403638132.080096960068 0.033510321638 -0.241553568476 -0.282743338823 11.988629625000 0.130755333333 -4.290409375000
963 1403638132.085097074509 0.039095375245 -0.226194671058 -0.256912465894 11.955940791667 0.073549875000 -4.331270416667
964 1403638132.090096950531 0.043982297150 -0.213628300444 -0.238761041673 12.070351708333 0.032688833333 -4.421164708333
965 1403638132.095097064972 0.054454272662 -0.201061929830 -0.216420827247 12.054007291667 -0.049033250000 -4.412992500000
966 1403638132.100096940994 0.057246799465 -0.184306769011 -0.201061929830 12.184762625000 0.000000000000 -4.519231208333
967 1403638132.105097055435 0.063529984773 -0.166155344790 -0.187099295814 12.160246000000 0.040861041667 -4.568264458333
968 1403638132.110096931458 0.074700091985 -0.148003920569 -0.173136661798 12.331862375000 0.171616375000 -4.641814333333
969 1403638132.115097045898 0.078190750489 -0.127758101246 -0.157079632679 12.184762625000 0.269682875000 -4.649986541667
970 1403638132.120096921921 0.078888882190 -0.113795467230 -0.141022603561 12.331862375000 0.416782625000 -4.723536416667
971 1403638132.125097036362 0.082379540694 -0.092851516206 -0.129154364648 12.274656916667 0.539365750000 -4.699019791667
972 1403638132.130096912384 0.079587013891 -0.071209433481 -0.109606677025 12.372723416667 0.710982125000 -4.797086291667
973 1403638132.135097026825 0.072605696883 -0.043284165449 -0.098436569812 12.250140291667 0.923459541667 -4.813430708333
974 1403638132.140096902847 0.064228116473 -0.023736477827 -0.069115038379 12.258312500000 1.037870458333 -4.837947333333
975 1403638132.145097017288 0.050963614158 -0.001396263402 -0.043982297150 12.013146250000 1.013353833333 -4.756225250000
976 1403638132.150096893311 0.048171087355 0.008377580410 -0.027925268032 11.939596375000 0.915287333333 -4.788914083333
977 1403638132.155097007751 0.046774823953 0.028623399733 -0.007679448709 11.825185458333 0.874426291667 -4.846119541667
978 1403638132.160096883774 0.050265482457 0.041887902048 0.018849555922 11.833357666667 0.776359791667 -4.854291750000
979 1403638132.165096998215 0.054454272662 0.064926248174 0.039793506945 11.841529875000 0.710982125000 -4.821602916667
980 1403638132.170097112656 0.055850536064 0.077492618789 0.066322511576 11.792496625000 0.580226791667 -4.780741875000
981 1403638132.175096988678 0.066322511576 0.096342174710 0.089360857702 11.817013250000 0.433127041667 -4.723536416667
982 1403638132.180097103119 0.076096355387 0.117984257435 0.117286125734 11.874218708333 0.302371708333 -4.658158750000
983 1403638132.185096979141 0.083077672395 0.140324471860 0.145909525467 11.972285208333 0.367749375000 -4.707192000000
984 1403638132.190097093582 0.094247779608 0.164060949687 0.178721715404 11.947768583333 0.302371708333 -4.658158750000
985 1403638132.195096969604 0.099832833214 0.199665666428 0.202458193231 11.931424166667 0.449471458333 -4.625469916667
986 1403638132.200097084045 0.106116018521 0.226892802759 0.227590934460 11.825185458333 0.539365750000 -4.584608875000
987 1403638132.205096960068 0.105417886820 0.258308729295 0.245044226980 11.767980000000 0.653776666667 -4.600953291667
988 1403638132.210097074509 0.104021623419 0.279950812020 0.268082573106 11.555502583333 0.637432250000 -4.568264458333
989 1403638132.215096950531 0.102625360017 0.300894763044 0.281347075421 11.506469333333 0.661948875000 -4.543747833333
990 1403638132.220097064972 0.101229096616 0.318348055564 0.308574211753 11.293991916667 0.678293291667 -4.486542375000
991 1403638132.225096940994 0.096342174710 0.330914426178 0.317649923863 11.253130875000 0.727326541667 -4.486542375000
